SampleTimeFine,Quat_W,Quat_X,Quat_Y,Quat_Z,FreeAcc_X,FreeAcc_Y,FreeAcc_Z,Status
13871375,0.6604,0.7159,0.1881,0.1266,-0.0579,-0.0327,0.0325,0
13871875,0.6614,0.7152,0.1883,0.1248,-0.0239,-0.0317,0.0653,0
13872375,0.6619,0.7153,0.1873,0.1232,0.0046,-0.0314,0.1597,0
13872875,0.6613,0.7162,0.1863,0.1222,0.1017,0.165,0.2198,0
13873375,0.6573,0.7207,0.1853,0.1197,0.6052,-0.8232,1.8032,0
13873875,0.656,0.7221,0.1837,0.1202,0.4361,-0.2627,0.9733,0
13874375,0.6448,0.7326,0.18,0.1231,0.8289,-0.8303,1.7237,0
13874875,0.6522,0.7267,0.1644,0.1397,0.5514,-0.9742,2.341,0
13875375,0.6537,0.725,0.1454,0.161,-0.0526,0.0859,0.9563,0
13875875,0.6578,0.7193,0.1224,0.1867,-0.8293,0.3381,0.184,0
13876375,0.6595,0.7147,0.0973,0.2114,-1.1212,0.7864,0.0365,0
13876875,0.66,0.71,0.0708,0.2352,-1.0968,0.595,-0.6752,0
13877375,0.6577,0.7063,0.0459,0.2577,-1.1799,0.3838,-0.5289,0
13877875,0.6581,0.6994,0.0203,0.278,-0.6006,0.2983,-1.7778,0
13878375,0.6566,0.6955,0.0006,0.2919,-0.1603,0.3523,-2.2685,0
13878875,0.6524,0.6972,-0.0078,0.297,-0.117,-0.2277,-1.8429,0
13879375,0.6534,0.6979,-0.0118,0.2931,0.4239,0.2919,-2.1034,0
13879875,0.6518,0.7029,-0.0023,0.2846,-0.0702,0.1362,-1.289,0
13880375,0.6495,0.7102,0.0119,0.2714,-0.3293,0.0638,-0.292,0
13880875,0.6471,0.717,0.0282,0.2576,-0.0484,-0.023,-0.5056,0
13881375,0.6481,0.7209,0.0446,0.2416,-0.2232,-0.2093,0.0588,0
13881875,0.6483,0.7245,0.0627,0.2254,-0.0448,0.1398,-0.4388,0
13882375,0.6444,0.7307,0.0826,0.2098,0.0016,-0.2651,-0.1896,0
13882875,0.6322,0.7426,0.1055,0.1942,-0.1722,0.0231,0.1228,0
13883375,0.6234,0.7514,0.1218,0.179,-0.0567,-0.5785,1.4238,0
13883875,0.6294,0.7476,0.1312,0.1662,-0.2869,-0.012,0.7285,0
13884375,0.6296,0.7482,0.1403,0.1553,-0.1085,-0.1165,0.6155,0
13884875,0.6312,0.7472,0.1474,0.1466,0.0422,-0.0643,0.7957,0
13885375,0.6334,0.7458,0.1518,0.1399,0.2071,-0.1656,0.4568,0
13885875,0.6344,0.745,0.155,0.1355,0.0654,-0.1808,0.9563,0
13886375,0.6356,0.7442,0.1556,0.1338,-0.0003,0.0404,1.0599,0
13886875,0.6364,0.7436,0.153,0.1362,0.341,-0.1082,1.0627,0
13887375,0.6397,0.7408,0.1474,0.1425,0.2802,-0.2488,0.8432,0
13887875,0.6454,0.7357,0.1388,0.1518,0.0006,-0.0969,0.3703,0
13888375,0.6459,0.735,0.1289,0.1613,-0.0317,-0.3505,0.4733,0
13888875,0.6477,0.7328,0.1177,0.1723,-0.2262,-0.1399,0.4279,0
13889375,0.6482,0.7314,0.1052,0.184,-0.2027,-0.1352,0.3029,0
13889875,0.6483,0.7298,0.0923,0.1965,-0.3124,-0.1871,0.3827,0
13890375,0.651,0.7252,0.0777,0.2103,-0.3304,0.0618,-0.025,0
13890875,0.6511,0.7224,0.0629,0.224,-0.3201,-0.0664,0.016,0
13891375,0.6527,0.7178,0.0473,0.2376,-0.3645,-0.0282,-0.1722,0
13891875,0.6511,0.7159,0.033,0.2499,-0.2061,-0.1419,-0.3266,0
13892375,0.6514,0.7122,0.0205,0.261,-0.0834,-0.1276,-0.8409,0
13892875,0.6479,0.7126,0.013,0.2688,-0.0509,-0.1762,-0.819,0
13893375,0.6461,0.7126,0.0091,0.2734,0.1373,-0.2424,-1.031,0
13893875,0.6476,0.7115,0.0083,0.2727,0.2893,-0.1371,-1.5165,0
13894375,0.6463,0.7151,0.0152,0.2658,0.0109,0.0983,-1.0417,0
13894875,0.6437,0.7207,0.0262,0.2562,-0.0962,0.0936,-0.4206,0
13895375,0.6409,0.7262,0.0389,0.2456,-0.0022,-0.426,-0.3451,0
13895875,0.6476,0.7241,0.0498,0.2322,-0.0577,0.0908,-0.7453,0
13896375,0.6505,0.7249,0.0644,0.2173,-0.1184,-0.1193,-0.1078,0
13896875,0.6536,0.7246,0.0811,0.2027,-0.1749,0.3756,-0.3118,0
13897375,0.6486,0.7304,0.1001,0.1891,-0.0881,-0.4772,1.0011,0
13897875,0.6504,0.7297,0.1138,0.1776,-0.1123,-0.2469,0.6258,0
13898375,0.6511,0.7294,0.1259,0.168,-0.1728,-0.2729,0.5829,0
13898875,0.6531,0.7279,0.135,0.1593,-0.1457,-0.1491,0.6749,0
13899375,0.6547,0.7268,0.1417,0.1522,0.0676,-0.2389,0.5508,0
13899875,0.6562,0.7253,0.1467,0.1479,-0.0463,-0.2373,0.708,0
13900375,0.657,0.7248,0.1484,0.1447,0.0662,-0.1985,0.628,0
13900875,0.6559,0.7262,0.1476,0.1435,0.0697,-0.3207,1.1453,0
13901375,0.6573,0.7253,0.1433,0.1461,0.1475,-0.0564,0.5583,0
13901875,0.6571,0.7257,0.1374,0.1509,0.1557,-0.2364,0.7836,0
13902375,0.658,0.7248,0.1289,0.1584,0.1567,-0.0751,0.346,0
13902875,0.6555,0.7264,0.1204,0.1677,0.0948,-0.1815,0.5037,0
13903375,0.6556,0.7251,0.11,0.1797,-0.0611,-0.0476,0.329,0
13903875,0.6543,0.7245,0.099,0.193,-0.2023,-0.1796,0.1514,0
13904375,0.6533,0.7233,0.0867,0.2061,-0.2924,-0.5244,0.4456,0
13904875,0.6542,0.7202,0.0733,0.2192,-0.1899,-0.1422,-0.3287,0
13905375,0.6527,0.7186,0.0615,0.2318,-0.1729,-0.4852,-0.0151,0
13905875,0.6519,0.7165,0.0505,0.2431,-0.3026,0.2325,-0.3914,0
13906375,0.6417,0.7224,0.0446,0.2539,-0.1913,-0.1818,-0.1858,0
13906875,0.6356,0.7247,0.0379,0.2634,0.019,-0.2968,-0.3692,0
13907375,0.6316,0.726,0.0323,0.2703,0.1469,-0.1414,-0.7698,0
13907875,0.6282,0.7276,0.0303,0.2739,0.3885,-0.2709,-1.4134,0
13908375,0.6281,0.7285,0.0327,0.2715,0.2878,-0.3339,-1.4428,0
13908875,0.6256,0.7333,0.0416,0.2629,-0.4143,-0.1889,-0.2924,0
13909375,0.6261,0.7357,0.0501,0.2533,-0.0542,-0.4288,-0.2061,0
13909875,0.6359,0.7307,0.0557,0.2421,-0.2206,-0.6229,0.1775,0
13910375,0.65,0.7215,0.0615,0.2305,-0.2793,0.9979,-0.6479,0
13910875,0.6461,0.727,0.074,0.22,0.1788,-0.8825,0.832,0
13911375,0.6532,0.7227,0.0827,0.2103,0.1367,-0.0133,-0.2549,0
13911875,0.6536,0.7237,0.0925,0.2012,-0.054,0.2078,0.0044,0
13912375,0.6451,0.7322,0.1037,0.1922,0.0341,-0.5748,0.8509,0
13912875,0.6481,0.7304,0.111,0.1851,-0.0706,0.1336,-0.352,0
13913375,0.644,0.7345,0.1208,0.1768,-0.104,-0.3106,0.4103,0
13913875,0.6467,0.7324,0.1286,0.1697,-0.0803,-0.0119,0.0673,0
13914375,0.6462,0.7332,0.1361,0.1625,0.0037,-0.3665,0.4734,0
13914875,0.6479,0.7319,0.1416,0.1566,0.0027,-0.371,0.5105,0
13915376,0.6501,0.7303,0.1452,0.1513,0.0047,-0.0367,0.2174,0
13915876,0.6511,0.7298,0.148,0.1469,0.0426,-0.0567,0.4144,0
13916376,0.649,0.7317,0.1503,0.1444,-0.0275,0.216,0.8425,0
13916876,0.6388,0.7405,0.1503,0.145,0.3848,-0.5256,1.608,0
13917376,0.6409,0.7387,0.1439,0.1513,0.1597,0.1159,0.2007,0
13917876,0.6353,0.7435,0.1369,0.1578,0.1733,-0.2437,0.8157,0
13918376,0.6351,0.7432,0.1273,0.1679,0.0011,-0.0908,0.5152,0
13918876,0.635,0.7423,0.1164,0.1797,0.0357,-0.2884,0.1207,0
13919376,0.6358,0.7402,0.105,0.1919,-0.2091,-0.0992,0.1459,0
13919876,0.6368,0.7376,0.0928,0.2047,-0.2598,-0.1717,0.0564,0
13920376,0.6368,0.7353,0.0809,0.2175,-0.3051,-0.2196,0.0677,0
13920876,0.6363,0.7333,0.0688,0.2294,-0.3526,-0.1315,0.2797,0
13921376,0.6387,0.7286,0.0551,0.2413,-0.1952,0.158,-0.3194,0
13921876,0.6371,0.7268,0.0437,0.2529,-0.0788,-0.3254,-0.1237,0
13922376,0.6385,0.723,0.032,0.2619,0.0909,0.1335,-0.8036,0
13922876,0.6327,0.7258,0.0274,0.2685,0.1138,-0.1052,-0.6347,0
13923376,0.6297,0.727,0.0253,0.2728,0.2166,-0.0958,-0.8204,0
13923876,0.6301,0.7264,0.0252,0.2733,0.2905,-0.1088,-0.9112,0
13924376,0.6291,0.7285,0.0294,0.2698,-0.0105,-0.2455,-0.3768,0
13924876,0.6263,0.7325,0.0355,0.2646,-0.2908,-0.1786,0.3465,0
13925376,0.6279,0.7324,0.0376,0.2606,0.1155,-0.1981,-0.0657,0
13925876,0.6309,0.7315,0.04,0.2553,0.0772,0.0029,-0.6781,0
13926376,0.6289,0.7357,0.0456,0.2472,0.0105,-0.2005,-0.0618,0
13926876,0.6306,0.7369,0.051,0.2382,0.2223,-0.1015,-0.334,0
13927376,0.6306,0.7396,0.0595,0.2278,0,-0.0666,-0.1185,0
13927876,0.6281,0.744,0.069,0.2173,-0.1851,-0.4101,0.6282,0
13928376,0.6324,0.7426,0.0749,0.2075,-0.0102,0.1348,-0.2031,0
13928876,0.631,0.7456,0.0822,0.1978,0.1099,-0.469,0.5663,0
13929376,0.6344,0.7443,0.0882,0.1894,0.044,0.1483,0.0822,0
13929876,0.6341,0.7455,0.0949,0.1819,0.1884,-0.1986,0.2318,0
13930376,0.6584,0.7498,-0.0436,0.0497,0.0895,0.003,-0.1321,0
13930876,0.6564,0.7522,-0.0381,0.042,0.0007,-0.0907,0.1386,0
13931376,0.6549,0.7542,-0.0321,0.0344,-0.0818,0.0093,0.2154,0
13931876,0.6541,0.7554,-0.0259,0.0281,-0.1331,0.0897,0.3041,0
13932376,0.6501,0.7592,-0.0211,0.0225,-0.0737,-0.3994,0.4308,0
13932876,0.6508,0.7588,-0.0171,0.0172,0.0649,0.1036,0.1477,0
13933376,0.6458,0.7633,-0.0139,0.0139,0.0873,-0.1573,0.913,0
13933876,0.6457,0.7633,-0.0132,0.0129,0.1017,-0.0185,0.83,0
13934376,0.6467,0.7625,-0.0149,0.0145,0.067,-0.1747,0.6387,0
13934876,0.6476,0.7616,-0.0184,0.0183,-0.0989,-0.3139,1.2248,0
13935376,0.6558,0.7541,-0.0252,0.0248,0.0598,0.0939,0.3316,0
13935876,0.6598,0.75,-0.033,0.0332,0.0171,0.0362,0.2726,0
13936376,0.6634,0.7458,-0.0424,0.0425,-0.0448,-0.1089,0.3309,0
13936876,0.6655,0.7427,-0.0521,0.053,-0.1345,-0.0861,0.0852,0
13937376,0.6657,0.741,-0.0614,0.0639,-0.1585,-0.0826,0.1022,0
13937876,0.6667,0.7381,-0.0709,0.0749,-0.0848,0.0157,0.007,0
13938376,0.6669,0.7357,-0.0811,0.0858,-0.1292,-0.1408,0.2189,0
13938876,0.669,0.7313,-0.0918,0.0962,0.0742,0.1006,-0.0595,0
13939376,0.6674,0.7299,-0.1006,0.1083,-0.0591,0.0743,-0.091,0
13939876,0.6611,0.7328,-0.1077,0.1199,-0.0337,-0.2291,-0.0523,0
13940376,0.6578,0.733,-0.1143,0.1302,0.0104,-0.3817,-0.389,0
13940876,0.6569,0.7317,-0.1193,0.1376,0.0447,-0.2017,-0.5383,0
13941376,0.6562,0.7308,-0.1224,0.1423,0.1031,-0.1714,-0.6127,0
13941876,0.6562,0.7304,-0.1238,0.1437,0.0915,-0.2456,-0.6576,0
13942376,0.6568,0.7304,-0.123,0.1411,0.1849,-0.0533,-0.6745,0
13942876,0.6564,0.7325,-0.1188,0.136,0.1358,-0.0322,-0.5965,0
13943376,0.6559,0.7353,-0.112,0.1286,0.0904,-0.184,-0.6304,0
13943876,0.6578,0.7366,-0.1037,0.1183,-0.2217,0.1231,-0.2202,0
13944376,0.6568,0.7404,-0.0942,0.1077,-0.0559,-0.1132,0.1099,0
13944876,0.6583,0.7416,-0.0843,0.0971,-0.1307,0.0444,0.1508,0
13945376,0.6544,0.7475,-0.0733,0.0878,0.1094,0.3704,-0.046,0
13945876,0.6421,0.7599,-0.0621,0.0803,-0.2209,-0.4519,0.8215,0
13946376,0.6409,0.7623,-0.0541,0.0724,-0.0334,0.199,0.0537,0
13946876,0.635,0.7684,-0.0461,0.0652,-0.1401,-0.4065,0.5084,0
13947376,0.6363,0.7683,-0.0389,0.0577,-0.0157,0.1419,-0.0739,0
13947876,0.6333,0.7716,-0.0318,0.0503,-0.0455,-0.3393,0.3104,0
13948376,0.6344,0.7714,-0.0256,0.0426,-0.1019,-0.2053,0.1956,0
13948876,0.6341,0.7722,-0.0203,0.0351,-0.0544,-0.1973,0.352,0
13949376,0.6352,0.7717,-0.0157,0.0273,0.0358,-0.1198,0.1577,0
13949876,0.6348,0.7723,-0.0109,0.0203,0.0898,0.0915,0.3838,0
13950376,0.6325,0.7744,-0.0063,0.0153,0.132,-0.0724,0.3826,0
13950876,0.6265,0.7793,-0.0018,0.0122,0.0583,0.0705,0.4668,0
13951376,0.621,0.7837,0.0005,0.0112,-0.0182,-0.2533,0.9395,0
13951876,0.62,0.7845,-0.0004,0.0112,0.1145,-0.1289,0.5179,0
13952376,0.6167,0.7871,-0.0026,0.013,0.0734,-0.3207,0.7912,0
13952876,0.6177,0.7862,-0.006,0.0172,-0.0187,-0.0566,0.5019,0
13953376,0.6171,0.7865,-0.0109,0.0227,0.0846,0.0527,0.5606,0
13953876,0.6167,0.7864,-0.0169,0.0304,0.0121,-0.1142,0.6131,0
13954376,0.6183,0.7846,-0.0239,0.0399,0.0388,0.1486,0.3102,0
13954876,0.6197,0.7825,-0.032,0.0507,-0.0058,-0.0495,0.2166,0
13955376,0.6208,0.7805,-0.0403,0.0622,-0.1433,-0.0949,0.4227,0
13955876,0.6232,0.7769,-0.0498,0.0746,-0.264,-0.2927,0.3093,0
13956376,0.6259,0.7727,-0.0593,0.0871,-0.1804,-0.0325,0.0115,0
13956876,0.6276,0.7692,-0.0684,0.0994,-0.1696,-0.2553,-0.0203,0
13957376,0.6318,0.7634,-0.0778,0.1094,-0.0632,-0.0859,0.0356,0
13957876,0.6364,0.7573,-0.0863,0.1187,0.151,0.0676,-0.43,0
13958376,0.6366,0.7551,-0.0913,0.1273,-0.1005,-0.4608,-0.204,0
13958876,0.6412,0.7497,-0.0967,0.1325,0.0215,-0.0381,-0.6424,0
13959376,0.6433,0.7471,-0.0999,0.1342,0.142,0.0288,-0.7764,0
13959876,0.6442,0.7465,-0.1,0.1333,-0.0185,-0.1048,-0.6712,0
13960376,0.6444,0.7474,-0.0976,0.1291,-0.0969,0.0988,-0.5833,0
13960876,0.6429,0.7502,-0.0935,0.1226,-0.065,0.1007,-0.1799,0
13961376,0.6417,0.7533,-0.0879,0.1146,0.1219,-0.3261,-0.1427,0
13961876,0.6476,0.7503,-0.0817,0.1046,-0.0181,-0.209,-0.1162,0
13962376,0.6522,0.7486,-0.0735,0.0939,0.1304,0.1828,-0.2072,0
13962876,0.6513,0.7513,-0.0646,0.0846,-0.0548,-0.4992,0.4549,0
13963376,0.6584,0.7469,-0.0567,0.0738,0.0513,0.4044,-0.5006,0
13963876,0.6537,0.7525,-0.047,0.065,-0.2207,-0.3936,0.6573,0
13964376,0.6569,0.7509,-0.0393,0.0554,-0.0349,0.2207,0.0608,0
13964876,0.6548,0.7536,-0.032,0.047,-0.087,-0.3798,0.5485,0
13965377,0.6597,0.7501,-0.0262,0.0378,0.1032,-0.1,-0.2189,0
13965877,0.6633,0.7475,-0.0194,0.0293,-0.0074,0.3188,0.1622,0
13966377,0.6605,0.7503,-0.0133,0.0229,-0.0186,-0.2918,0.5928,0
13966877,0.6636,0.7479,-0.0091,0.0168,-0.044,-0.083,0.1605,0
13967377,0.6635,0.7481,-0.0046,0.0112,-0.0682,0.2629,0.1765,0
13967877,0.6632,0.7484,-0.0004,0.0077,-0.0928,-0.0721,0.6963,0
13968377,0.6629,0.7487,0.0002,0.0052,0.1491,-0.2046,0.9034,0
13968877,0.664,0.7477,-0.0007,0.0058,0.0654,-0.0289,0.6584,0
13969377,0.6643,0.7474,-0.003,0.0086,0.0523,-0.0294,0.3303,0
13969877,0.663,0.7485,-0.006,0.0134,-0.0786,-0.187,0.7408,0
13970377,0.6642,0.7472,-0.0115,0.0201,-0.0717,-0.1639,0.4592,0
13970877,0.6647,0.7463,-0.0187,0.0277,-0.0571,-0.1175,0.4098,0
13971377,0.6652,0.7453,-0.0274,0.0362,-0.1691,-0.0451,0.5601,0
13971877,0.6669,0.7428,-0.0376,0.0459,-0.0171,0.1073,0.3046,0
13972377,0.6688,0.7395,-0.0494,0.0577,-0.1282,-0.196,0.3103,0
13972877,0.6736,0.7332,-0.0619,0.0696,0.0165,0.1291,-0.2565,0
13973377,0.6757,0.729,-0.0725,0.0821,-0.1685,-0.1579,0.0591,0
13973877,0.6805,0.722,-0.0836,0.0926,0.0205,0.0382,-0.3086,0
13974377,0.6832,0.7169,-0.0929,0.1028,-0.0284,-0.0719,-0.2523,0
13974877,0.6838,0.714,-0.1012,0.1112,0.1067,-0.144,-0.4015,0
13975377,0.6829,0.7129,-0.1072,0.1182,0.0915,-0.2824,-0.4737,0
13975877,0.6833,0.7112,-0.1114,0.122,0.2357,-0.1977,-0.8338,0
13976377,0.6845,0.7101,-0.1118,0.1214,0.2466,-0.0658,-1.1186,0
13976877,0.6476,0.7205,0.0314,0.2457,-0.0332,-0.0118,-0.6406,0
13977377,0.6462,0.7239,0.0403,0.2384,0.1383,0.2519,-0.8234,0
13977877,0.6385,0.733,0.0545,0.2283,0.0237,-0.1077,-0.3979,0
13978377,0.6337,0.7395,0.0684,0.2165,-0.0443,0.0462,0.0296,0
13978877,0.6283,0.7459,0.0816,0.2055,-0.0447,-0.3108,0.7912,0
13979377,0.6312,0.7448,0.0906,0.1968,0.0075,0.0315,-0.0123,0
13979877,,,,,,,,
