SampleTimeFine,Quat_W,Quat_X,Quat_Y,Quat_Z,FreeAcc_X,FreeAcc_Y,FreeAcc_Z,Status
21256939,0.1488,-0.2442,-0.7285,0.6225,0.3669,0.5734,2.3008,0
21257439,0.1991,-0.1496,-0.7906,0.5594,0.0394,-0.7975,2.6048,0
21257939,0.2489,-0.0715,-0.8185,0.5128,0.5812,-2.4037,3.9485,0
21258439,0.2954,-0.0118,-0.817,0.4951,3.1337,-2.2477,4.7706,0
21258939,0.3585,0.0439,-0.7815,0.5088,4.6581,-0.7317,0.0582,0
21259439,0.4141,0.0875,-0.7343,0.5307,2.391,1.757,-4.6513,0
21259939,0.4553,0.1149,-0.7096,0.5253,-1.3146,1.9591,-6.0991,0
21260439,0.4882,0.1216,-0.7154,0.4849,-1.899,1.436,-3.3669,0
21260939,0.5272,0.1141,-0.7317,0.4168,0.4793,-0.1316,-0.4781,0
21261440,0.5588,0.0995,-0.746,0.3483,-8.1082,-3.1903,-6.7443,0
21261940,0.5699,0.0803,-0.7596,0.3029,-8.3233,-2.3542,-5.2913,0
21262440,0.572,0.0918,-0.7428,0.3356,-4.3644,0.1026,-4.4754,0
21262940,0.5639,0.0973,-0.738,0.3576,-3.1468,0.1414,-2.4423,0
21263440,0.5451,0.0929,-0.7487,0.3657,-6.9447,-1.9526,-6.2765,0
21263940,0.514,0.0898,-0.7649,0.3778,-0.5173,-0.8317,0.6057,0
21264440,0.4871,0.1067,-0.7504,0.4339,0.5391,-1.107,-2.1027,0
21264940,0.4563,0.1154,-0.741,0.4789,-1.1044,-0.1252,-2.5192,0
21265440,0.4246,0.109,-0.7481,0.4982,-0.1731,0.5915,-0.1535,0
21265940,0.3879,0.0985,-0.7517,0.5242,2.1507,0.6787,1.5274,0
21266440,0.3564,0.0705,-0.7362,0.571,0.1173,1.4801,-1.7752,0
21266940,0.3231,0.014,-0.7217,0.6121,0.8264,2.0463,-1.4528,0
21267440,0.2718,-0.0622,-0.6974,0.6602,0.8618,1.425,-0.1376,0
21267940,0.203,-0.1504,-0.6774,0.6909,3.303,-0.0271,-2.1888,0
21268440,0.1236,-0.2328,-0.6692,0.6947,3.4769,-0.4917,0.831,0
21268940,0.0347,-0.3099,-0.6621,0.6815,1.611,0.5779,3.9296,0
21269440,-0.059,-0.3703,-0.6519,0.6591,-3.2254,1.4209,5.7297,0
21269940,-0.1307,-0.4172,-0.6314,0.6405,-10.569,0.471,5.7363,0
21270440,-0.1417,-0.4392,-0.6145,0.6398,-10.6691,1.6401,4.2828,0
21270940,-0.1198,-0.4377,-0.6119,0.6478,-1.7435,1.4414,0.7678,0
21271440,-0.0932,-0.4319,-0.6123,0.6556,1.1697,0.2292,-0.5145,0
21271940,-0.0744,-0.4221,-0.6185,0.6586,0.3439,-0.636,-0.9186,0
21272440,-0.0588,-0.4031,-0.6325,0.6588,-3.7621,0.8691,0.4954,0
21272940,-0.0255,-0.3661,-0.6601,0.6554,-5.8328,2.8909,4.0986,0
21273440,0.0327,-0.2962,-0.7062,0.6422,-4.221,2.1217,6.2615,0
21273940,0.1138,-0.2074,-0.7546,0.6121,-0.4119,0.102,6.8804,0
21274440,0.2039,-0.1088,-0.7885,0.57,3.0212,-1.03,4.9445,0
21274940,0.2928,-0.0182,-0.8009,0.5221,5.5891,-1.6972,2.2364,0
21275440,0.3778,0.0619,-0.786,0.4854,5.675,-2.0895,-0.5531,0
21275940,0.45,0.1343,-0.7472,0.4703,4.4451,-0.3356,-5.1389,0
21276440,0.5035,0.1935,-0.7056,0.4595,1.4086,1.3551,-5.6344,0
21276940,0.5453,0.2287,-0.6737,0.4431,-1.6788,3.225,-4.132,0
21277440,0.585,0.2367,-0.6573,0.4119,0.4799,2.294,-2.9929,0
21277940,0.6233,0.229,-0.6479,0.3732,-1.6704,0.4794,-2.0808,0
21278440,0.6573,0.2087,-0.6445,0.3302,-1.0995,-1.0052,-1.2023,0
21278940,0.6791,0.1922,-0.6363,0.3116,-3.866,-0.4684,-2.598,0
21279440,0.6897,0.1734,-0.6313,0.3094,-3.236,0.1495,-1.9991,0
21279940,0.6903,0.1546,-0.6317,0.317,-2.4024,-0.1468,-0.2545,0
21280440,0.6815,0.1438,-0.6385,0.3273,-1.513,-0.1381,-1.0904,0
21280940,0.6691,0.1376,-0.6515,0.3301,-1.1033,-1.1057,0.2897,0
21281440,0.6591,0.1456,-0.6563,0.3372,0.8432,-0.0674,1.5268,0
21281940,0.6543,0.1562,-0.6559,0.3423,0.3482,0.5773,-0.0516,0
21282440,0.6501,0.1621,-0.6594,0.3409,-2.2185,-0.4113,-1.209,0
21282940,0.6389,0.1734,-0.6633,0.349,-3.6122,-1.0465,-2.7196,0
21283440,0.6147,0.1902,-0.6687,0.3727,-4.3386,-1.4324,-3.4965,0
21283940,0.5831,0.2059,-0.675,0.4024,0.4048,-1.5502,-3.6568,0
21284440,0.5436,0.2232,-0.6763,0.4442,-0.0955,0.2237,-4.5046,0
21284940,0.5002,0.2075,-0.7044,0.4589,3.6746,0.9294,-5.509,0
21285440,0.4491,0.1715,-0.7389,0.4722,3.8238,1.5442,-2.4038,0
21285940,0.3867,0.1083,-0.7625,0.5072,5.8164,0.2359,0.6925,0
21286440,0.3086,0.018,-0.7573,0.5753,4.0122,0.5597,3.1691,0
21286940,0.2225,-0.0784,-0.7348,0.636,6.1377,-0.9384,2.1221,0
21287440,0.1354,-0.1587,-0.7147,0.6676,-1.607,0.2033,6.2596,0
21287940,0.0725,-0.2227,-0.6847,0.6902,0.0429,1.6442,6.0678,0
21288440,0.0253,-0.2784,-0.6463,0.71,-0.5129,-0.3229,1.8167,0
21288940,-0.0097,-0.3124,-0.6223,0.7177,-0.5839,-0.1006,1.7614,0
21289440,-0.0227,-0.3305,-0.6188,0.7123,-0.5598,1.1406,3.0207,0
21289940,-0.0331,-0.3306,-0.6277,0.704,-2.2869,0.4274,1.2128,0
21290440,-0.0264,-0.3316,-0.6254,0.7058,0.3083,-0.3663,0.8067,0
21290940,-0.0198,-0.3325,-0.6221,0.7086,1.3895,-0.5628,-0.6492,0
21291440,-0.0188,-0.3304,-0.6217,0.7099,0.8034,0.1955,-0.8756,0
21291940,-0.0165,-0.326,-0.6241,0.7098,-0.2303,0.352,1.2165,0
21292440,-0.0046,-0.3061,-0.6311,0.7127,-3.4203,-0.2364,4.6343,0
21292940,0.0353,-0.2556,-0.6527,0.7124,-3.2128,1.3343,5.7199,0
21293440,0.1073,-0.1674,-0.6956,0.6903,-0.5072,1.6535,6.928,0
21293940,0.1971,-0.0499,-0.7441,0.6364,3.0344,0.2647,7.1725,0
21294440,0.2978,0.0671,-0.7645,0.5678,7.3093,-1.2711,4.5381,0
21294940,0.3906,0.1651,-0.753,0.5031,9.8968,-1.7533,0.4985,0
21295440,0.4661,0.2426,-0.7037,0.4782,8.7447,0.0609,-5.1631,0
21295940,0.5229,0.3069,-0.6338,0.4804,3.005,2.7252,-7.4,0
21296440,0.5735,0.3419,-0.5809,0.4656,-1.6408,4.2087,-6.6148,0
21296940,0.6258,0.3409,-0.5604,0.422,-1.8059,2.6695,-5.5496,0
21297440,0.6739,0.3145,-0.57,0.3494,-8.3991,-3.685,-4.4938,0
21297940,0.7019,0.2627,-0.6069,0.2645,-0.7334,-4.02,-0.536,0
21298440,0.7032,0.2631,-0.6056,0.2637,2.9709,-0.5042,-0.3421,0
21298940,0.6982,0.2783,-0.5894,0.2961,-1.0181,2.357,0.0035,0
21299440,0.6985,0.2556,-0.6022,0.2899,-0.2257,-0.746,0.3283,0
21299940,0.6913,0.2519,-0.6099,0.2943,-0.6823,-1.1271,0.2394,0
21300440,0.682,0.2597,-0.6136,0.3014,0.588,0.5267,-0.7473,0
21300940,0.6762,0.2606,-0.6219,0.297,1.8433,0.5541,0.5918,0
21301440,0.6702,0.2668,-0.6235,0.3014,-3.1417,-0.2988,-2.3286,0
21301940,0.6543,0.2719,-0.6325,0.3128,-5.3082,-1.2231,-2.5829,0
21302440,0.6202,0.2839,-0.6452,0.3442,-3.9644,-1.6229,-5.5306,0
21302940,0.5717,0.2987,-0.6596,0.3859,2.0706,-1.1132,-3.6832,0
21303440,0.5284,0.3031,-0.6694,0.4253,2.007,0.3558,-7.2795,0
21303940,0.4752,0.2694,-0.714,0.4379,4.3817,1.6139,-1.1006,0
21304440,0.4186,0.2075,-0.741,0.4823,8.0271,1.25,-0.7949,0
21304940,0.3387,0.0911,-0.7252,0.5925,8.0774,1.2702,0.8592,0
21305440,0.2441,-0.0298,-0.6612,0.7088,1.6139,-0.4407,0.7445,0
21305940,0.1451,-0.1222,-0.6408,0.7439,4.4988,-1.4571,6.7556,0
21306440,0.0607,-0.1766,-0.6306,0.7533,-0.2218,1.1413,4.3504,0
21306940,-0.0011,-0.2197,-0.6272,0.7472,1.1155,1.8051,4.6853,0
21307440,-0.0451,-0.2566,-0.613,0.7459,-0.8949,0.4189,0.8901,0
21307940,-0.0657,-0.2789,-0.6091,0.7395,0.9854,-0.6394,2.3244,0
21308440,-0.0782,-0.2859,-0.6184,0.7278,-1.9835,0.3378,1.2081,0
21308940,-0.0749,-0.2896,-0.6174,0.7275,-0.6366,-1.1757,1.6185,0
21309440,-0.0651,-0.285,-0.617,0.7306,0.7775,-0.44,0.6925,0
21309940,-0.0521,-0.2742,-0.6152,0.7373,-0.6965,-0.1115,2.0316,0
21310440,-0.0266,-0.25,-0.6144,0.7478,-1.8614,0.1484,3.9657,0
21310940,0.0198,-0.2068,-0.6203,0.7563,-0.4873,1.0479,4.0044,0
21311441,0.085,-0.1373,-0.6382,0.7528,1.0076,0.7027,4.6694,0
21311941,0.1623,-0.0434,-0.664,0.7286,2.7985,0.7364,4.5852,0
21312441,0.2499,0.0609,-0.6807,0.686,5.6078,0.0109,2.7608,0
21312941,0.3324,0.1604,-0.6829,0.6305,7.0407,0.1347,1.5735,0
21313441,0.4037,0.2431,-0.6612,0.5837,7.3683,0.0224,-2.252,0
21313941,0.4594,0.3067,-0.6162,0.5614,3.5573,1.4665,-5.937,0
21314441,0.7356,-0.1026,-0.6632,0.0925,2.0436,0.9347,-5.3606,0
21314941,0.7461,-0.0844,-0.6595,0.0369,2.5607,2.7749,-4.8769,0
21315441,0.7464,-0.1092,-0.655,-0.0434,2.0728,-1.4359,-2.3304,0
21315941,0.7393,-0.1482,-0.6425,-0.1365,-3.235,0.0398,-1.8965,0
21316441,0.7201,-0.1979,-0.6294,-0.2149,-6.0461,1.9368,-0.6645,0
21316941,0.7233,-0.2044,-0.6193,-0.2269,-1.9076,2.7732,-2.2308,0
21317441,0.7394,-0.1813,-0.6178,-0.197,0.9668,2.5757,-0.5799,0
21317941,0.7382,-0.1908,-0.6187,-0.1891,1.0876,-3.0242,-0.1189,0
21318441,0.7374,-0.1987,-0.6178,-0.1876,0.6064,-0.9474,0.3414,0
21318941,0.7337,-0.2059,-0.6188,-0.1907,-0.4188,0.4312,-0.4476,0
21319441,0.729,-0.2121,-0.6227,-0.1891,-0.3468,-0.2383,0.4082,0
21319941,0.7292,-0.2087,-0.6262,-0.1807,0.5471,-0.5546,-1.0652,0
21320441,0.7252,-0.2143,-0.6306,-0.1749,-0.936,3.0797,-2.1657,0
21320941,0.715,-0.2301,-0.6407,-0.1591,-2.2127,5.1178,-4.0715,0
21321441,0.7052,-0.2463,-0.6546,-0.1165,-2.5382,2.256,-5.6307,0
21321941,0.6989,-0.2543,-0.6666,-0.0509,-1.7597,-1.5229,-5.0797,0
21322441,0.6876,-0.2707,-0.6736,0.013,-0.1079,-5.3973,-4.5074,0
21322941,0.6576,-0.3113,-0.681,0.0826,1.1924,-5.6562,-2.4092,0
21323441,0.631,-0.3611,-0.6666,0.1643,1.3265,-7.036,4.7497,0
21323941,0.6309,-0.4106,-0.5863,0.2994,3.709,-3.5129,3.2844,0
21324441,0.6239,-0.4437,-0.4833,0.4246,1.0503,-2.8505,1.687,0
21324941,0.5867,-0.4783,-0.4121,0.5071,0.6925,-1.1803,3.4641,0
21325441,0.5465,-0.5079,-0.365,0.5569,1.7715,-1.4641,1.301,0
21325941,0.4989,-0.5398,-0.3407,0.5862,1.4754,-1.2466,1.4614,0
21326441,0.4544,-0.5688,-0.3287,0.6016,1.2045,-0.3376,1.706,0
21326941,0.4239,-0.5885,-0.326,0.6065,-0.323,0.1857,1.0804,0
21327441,0.3975,-0.6087,-0.3297,0.6023,0.1443,1.0133,1.9778,0
21327941,0.3847,-0.6203,-0.3286,0.5994,-0.4293,0.1065,1.371,0
21328441,0.3796,-0.6245,-0.3303,0.5974,-0.6812,0.1381,1.2986,0
21328941,0.3816,-0.6241,-0.331,0.5961,-0.3595,0.1767,0.7808,0
21329441,0.3948,-0.6175,-0.3342,0.5926,0.1845,0.1224,1.2392,0
21329941,0.4136,-0.6055,-0.3514,0.5821,0.288,1.55,3.0808,0
21330441,0.4451,-0.5832,-0.3895,0.5568,1.0166,1.4215,3.172,0
21330941,0.4803,-0.551,-0.4559,0.5078,0.8961,0.5437,4.9155,0
21331441,0.5159,-0.5033,-0.5405,0.4341,0.4652,-1.8954,7.2847,0
21331941,0.5579,-0.4355,-0.6166,0.3448,0.2926,-5.7033,6.3487,0
21332441,0.6003,-0.3592,-0.6674,0.2551,1.9786,-8.2705,1.6384,0
21332941,0.6466,-0.279,-0.685,0.1864,2.351,-8.1899,-3.9488,0
21333441,0.6948,-0.1954,-0.6757,0.1497,2.9465,-0.5559,-6.7327,0
21333941,0.7236,-0.1496,-0.6654,0.1059,2.1359,1.8358,-7.5818,0
21334441,0.7246,-0.1575,-0.6702,0.0307,-0.5211,0.6158,-5.0346,0
21334941,0.71,-0.1965,-0.6741,-0.0532,-2.1617,-0.2406,-1.5649,0
21335441,0.6996,-0.2252,-0.6684,-0.1141,-2.6909,-2.788,0.2,0
21335941,0.7172,-0.212,-0.6516,-0.127,-0.2712,1.7365,-2.1197,0
21336441,0.7297,-0.2075,-0.6387,-0.1285,-0.6216,2.985,-1.3968,0
21336941,0.725,-0.2255,-0.6358,-0.1391,-1.0397,1.3584,-0.498,0
21337441,0.7195,-0.233,-0.6397,-0.1371,-0.8348,0.4385,-0.8336,0
21337941,0.7148,-0.2332,-0.6466,-0.129,1.0712,-0.9972,0.0809,0
21338441,0.7131,-0.2311,-0.6506,-0.1216,0.2575,0.0148,-0.466,0
21338941,0.7092,-0.2342,-0.6554,-0.112,-0.3794,0.9527,-0.4163,0
21339441,0.7091,-0.2319,-0.6594,-0.0929,-0.9738,0.7028,-2.3435,0
21339941,0.7083,-0.2293,-0.6649,-0.06,-0.4632,0.893,-1.8939,0
21340441,0.7058,-0.23,-0.6698,-0.0172,-0.9985,0.4408,-4.1322,0
21340941,0.6977,-0.2404,-0.6741,0.0315,-0.4818,-0.6007,-3.2757,0
21341441,0.6934,-0.263,-0.6664,0.0767,1.2574,-2.1553,-5.1721,0
21341941,0.6785,-0.3149,-0.6517,0.1256,2.0249,-3.8234,-3.2729,0
21342441,0.6614,-0.3755,-0.621,0.1895,3.8674,-4.2364,0.7431,0
21342941,0.6511,-0.4463,-0.5504,0.272,0.4132,-5.5892,1.9724,0
21343441,0.6258,-0.5028,-0.4759,0.3594,-1.1809,-5.0667,-1.1054,0
21343941,0.5707,-0.5493,-0.4304,0.4328,-2.5698,0.357,6.3021,0
21344441,0.5198,-0.5778,-0.3938,0.4907,-0.4182,-2.6422,3.2475,0
21344941,0.4686,-0.5955,-0.3574,0.546,1.3723,-1.196,4.1971,0
21345441,0.4206,-0.608,-0.319,0.593,2.0242,0.8482,1.63,0
21345941,0.3885,-0.6254,-0.3046,0.6043,1.7841,0.9429,2.426,0
21346441,0.3656,-0.6393,-0.3046,0.604,0.674,3.1241,1.4881,0
21346941,0.3713,-0.6438,-0.3015,0.5974,-0.8012,0.9969,1.5633,0
21347441,0.3847,-0.6417,-0.3025,0.5906,-0.5332,-1.2636,0.2155,0
21347941,0.396,-0.6355,-0.3036,0.5891,-0.031,-1.6969,-0.6901,0
21348441,0.4028,-0.6303,-0.3044,0.5898,0.378,-1.4326,-0.1774,0
21348941,0.4102,-0.6235,-0.3105,0.5887,0.6755,1.2409,1.6978,0
21349441,0.4285,-0.6109,-0.3266,0.5801,0.3887,1.9663,3.0541,0
21349941,0.4564,-0.5877,-0.3721,0.5548,-0.0072,1.2469,4.0789,0
21350441,0.486,-0.5524,-0.4523,0.504,1.056,0.5653,5.0724,0
21350941,0.5157,-0.5001,-0.5494,0.4268,0.4084,-2.2068,5.4938,0
21351441,0.5471,-0.4351,-0.6309,0.3367,-0.0433,-4.7535,5.1981,0
21351941,0.5853,-0.3664,-0.6767,0.2555,1.5347,-7.1881,0.4078,0
21352441,0.6312,-0.293,-0.6903,0.1981,2.0899,-6.5317,-2.6804,0
21352941,0.6779,-0.2155,-0.6826,0.1677,1.0668,-2.8897,-6.7624,0
21353441,0.7,-0.1588,-0.6832,0.1341,0.0087,-0.385,-4.3659,0
21353941,0.7067,-0.1314,-0.6891,0.0919,1.3665,1.4168,-4.1833,0
21354441,0.7073,-0.1296,-0.694,0.0372,2.2813,0.9144,-2.2287,0
21354941,0.6994,-0.1555,-0.6965,-0.0394,0.9294,-0.9022,0.7533,0
21355441,0.6829,-0.2087,-0.6875,-0.1319,-2.6262,0.4506,-1.9304,0
21355941,0.6755,-0.2351,-0.6788,-0.1664,-4.1008,6.2541,-3.7758,0
21356441,0.6908,-0.2289,-0.6709,-0.1423,1.9565,-1.2848,-1.389,0
21356941,0.7077,-0.2197,-0.6609,-0.119,0.3177,1.4934,-0.4402,0
21357441,0.704,-0.2424,-0.655,-0.1288,-0.2917,-1.5933,1.1917,0
21357941,0.711,-0.2409,-0.6505,-0.1156,-0.6463,0.4661,-0.3375,0
21358441,0.7144,-0.2373,-0.6515,-0.0939,-1.6704,2.0781,-2.0179,0
21358941,0.7101,-0.2354,-0.6603,-0.0665,-1.5477,0.3934,-1.0741,0
21359441,0.7071,-0.2193,-0.6721,-0.015,-1.5788,0.3285,-3.1827,0
21359941,0.6992,-0.2093,-0.6824,0.0398,-0.7063,0.4145,-3.8841,0
21360441,0.6871,-0.2131,-0.6894,0.0845,0.6568,-1.3606,-2.3344,0
21360941,0.6766,-0.2367,-0.6864,0.1229,2.6024,-1.0674,-2.8934,0
21361442,0.3999,0.2124,-0.6997,0.5526,3.0318,2.3686,-2.8225,0
21361942,0.3494,0.1407,-0.7128,0.5917,3.7806,1.3425,-0.7534,0
21362442,0.2909,0.046,-0.7101,0.6396,5.0976,0.2616,0.4154,0
21362942,0.2203,-0.0429,-0.6922,0.6859,3.2263,-0.4576,1.3474,0
21363442,0.1422,-0.1168,-0.6908,0.6993,3.1359,0.1649,2.7851,0
21363942,,,,,,,,
