SampleTimeFine,Quat_W,Quat_X,Quat_Y,Quat_Z,FreeAcc_X,FreeAcc_Y,FreeAcc_Z,Status
21253773,0.8933,0.1052,0.4252,0.101,0.0136,0.0728,-0.0811,0
21253940,0.8932,0.1062,0.4251,0.1013,-0.0209,0.0346,-0.0741,0
21254440,0.8928,0.1078,0.4255,0.1016,-0.0191,-0.0657,-0.1076,0
21254940,0.8931,0.1068,0.4251,0.1017,-0.7721,0.0766,-0.0758,0
21255440,0.8966,0.1038,0.4184,0.102,1.125,1.4843,2.2764,0
21255940,0.9111,0.0895,0.3847,0.1183,-0.0922,-1.985,1.1311,0
21256440,0.929,0.0868,0.336,0.1287,-0.5927,1.748,3.209,0
21256940,0.9487,0.0461,0.2751,0.1489,-1.4017,0.7641,0.886,0
21257440,0.9648,-0.0078,0.2099,0.158,-1.1637,-0.5795,-0.1141,0
21257940,0.9781,-0.046,0.138,0.1488,-1.0377,-1.3177,-0.7559,0
21258440,0.9882,-0.06,0.0549,0.1296,-1.8999,-1.7815,0.0873,0
21258940,0.9919,-0.0491,-0.0486,0.1063,-1.2272,-1.2986,-1.5682,0
21259440,0.9848,-0.0425,-0.1447,0.0857,0.1453,-0.1119,-1.5427,0
21259940,0.9723,-0.045,-0.2226,0.0555,2.5535,-0.4612,-1.3445,0
21260440,0.9586,-0.0537,-0.2788,0.0195,2.1231,-0.581,-1.4532,0
21260940,0.9436,-0.0673,-0.3233,-0.024,0.4121,0.0313,-1.315,0
21261440,0.9236,-0.0853,-0.3664,-0.0744,2.3664,1.1184,-0.3728,0
21261940,0.9111,-0.1033,-0.3859,-0.1012,4.228,-0.013,-0.7588,0
21262440,0.9139,-0.0995,-0.3819,-0.0955,1.5346,-0.8223,-1.399,0
21262940,0.9217,-0.09,-0.368,-0.0831,1.1588,0.3462,-0.8487,0
21263440,0.9308,-0.0872,-0.3476,-0.0726,2.2317,0.843,-0.7253,0
21263940,0.9461,-0.0938,-0.3069,-0.0451,1.7211,-1.5848,-0.076,0
21264440,0.9599,-0.0864,-0.2666,-0.013,0.4919,-0.7462,-0.7743,0
21264940,0.972,-0.0765,-0.2211,0.0238,0.3339,0.4104,-0.9677,0
21265440,0.9804,-0.0805,-0.1692,0.0607,1.8102,-1.0305,-0.2637,0
21265940,0.9861,-0.0736,-0.1145,0.0949,-0.5916,-0.0377,-1.1831,0
21266440,0.9891,-0.0525,-0.0602,0.124,-0.039,-0.7735,-1.3786,0
21266940,0.9891,-0.0216,0.0019,0.1455,0.6728,0.2699,-1.2207,0
21267440,0.9851,0.0065,0.0718,0.1562,-1.3744,-0.8213,0.4258,0
21267940,0.9758,0.0225,0.1482,0.1593,0.7916,0.0812,-1.7999,0
21268440,0.9575,0.0423,0.236,0.1602,0.4327,-0.9173,-3.1916,0
21268940,0.9289,0.0573,0.3329,0.1521,-2.9513,0.3605,2.3136,0
21269440,0.9016,0.0534,0.4025,0.1494,-0.1539,-0.0334,2.7787,0
21269940,0.8786,0.055,0.4516,0.1452,-0.8288,-0.637,1.7758,0
21270440,0.8655,0.0584,0.4766,0.1426,-0.4029,2.3636,3.7943,0
21270940,0.8718,0.0599,0.4646,0.1433,0.5603,-0.9382,0.7594,0
21271440,0.8818,0.0602,0.4483,0.1334,-0.2256,-0.0826,-0.5815,0
21271940,0.8885,0.0593,0.4375,0.1248,-0.3442,0.4443,-1.2305,0
21272440,0.8921,0.0588,0.4313,0.1213,-0.5511,0.2841,0.3123,0
21272940,0.9007,0.051,0.4137,0.1219,-0.6898,-0.0046,1.8289,0
21273440,0.9186,0.0213,0.3753,0.1218,0.6178,-0.0024,4.1004,0
21273940,0.9463,-0.025,0.3023,0.1116,-1.2179,-0.5261,3.256,0
21274440,0.9711,-0.069,0.2062,0.0986,-2.0733,0.0967,0.8987,0
21274940,0.9872,-0.0981,0.0954,0.0824,-2.4003,-1.0807,-1.551,0
21275440,0.9932,-0.0959,-0.0209,0.0625,-1.5166,-1.2631,-2.2488,0
21275940,0.9872,-0.0812,-0.1264,0.0545,-0.4599,-0.7238,-3.0191,0
21276440,0.973,-0.0653,-0.2167,0.0462,0.6543,1.0453,-2.2675,0
21276940,0.9554,-0.066,-0.2862,0.0314,1.8166,0.2197,-0.607,0
21277440,0.9379,-0.0708,-0.3396,0.0023,0.9521,-0.191,-1.1969,0
21277940,0.9208,-0.077,-0.3807,-0.0353,1.6566,-0.8844,-0.1668,0
21278440,0.905,-0.0829,-0.4106,-0.0738,0.5379,-0.216,-0.1381,0
21278940,0.8914,-0.0849,-0.4336,-0.1012,0.8578,-0.3292,-0.0353,0
21279440,0.885,-0.086,-0.4418,-0.1191,1.6615,0.3422,-0.6121,0
21279940,0.885,-0.0861,-0.4388,-0.1296,1.5433,-0.9218,0.1942,0
21280440,0.8883,-0.0845,-0.4318,-0.132,0.6902,-0.856,-0.9271,0
21280940,0.8924,-0.0836,-0.4247,-0.1277,1.2766,-0.1618,-0.3753,0
21281440,0.8972,-0.0844,-0.4171,-0.118,0.1925,-0.4768,0.3238,0
21281940,0.9001,-0.0819,-0.4141,-0.1081,-0.4559,0.0163,-0.0161,0
21282440,0.9016,-0.0811,-0.4122,-0.103,0.6618,-0.8273,0.0521,0
21282940,0.9068,-0.0767,-0.404,-0.0933,1.9499,0.3032,-0.9249,0
21283440,0.9189,-0.0719,-0.3811,-0.0723,2.1392,0.7256,-0.5902,0
21283940,0.937,-0.0761,-0.3384,-0.0414,0.9008,-0.355,-0.6825,0
21284440,0.9559,-0.08,-0.2827,-0.0019,0.8098,0.6813,-0.3303,0
21284940,0.973,-0.0885,-0.2095,0.0388,1.5733,-0.0159,-2.5768,0
21285440,0.9854,-0.0958,-0.1191,0.0745,-1.2411,0.0329,-0.5723,0
21285940,0.9899,-0.0964,-0.0209,0.1017,-0.1979,-2.3941,-1.1443,0
21286440,0.9879,-0.0614,0.0809,0.1172,-3.1744,-0.5948,-3.7333,0
21286940,0.9746,-0.0318,0.1799,0.1292,0.5013,0.8607,0.101,0
21287440,0.9533,-0.0157,0.2689,0.1363,0.2031,-0.9612,3.3328,0
21287940,0.935,0.0039,0.3294,0.1316,-4.7253,-0.3813,5.039,0
21288440,0.9228,0.0215,0.3612,0.1325,-0.209,0.2445,1.5293,0
21288940,0.9136,0.0269,0.3836,0.1326,-0.442,0.1169,-0.405,0
21289440,0.9041,0.0361,0.4043,0.1339,-1.1146,1.0263,2.0843,0
21289940,0.8999,0.0285,0.4129,0.1376,0.1827,-0.4293,0.2687,0
21290440,0.9011,0.0289,0.4114,0.1336,-0.5156,-0.0017,0.655,0
21290940,0.9032,0.0323,0.4073,0.1313,-0.4266,0.2406,-0.4001,0
21291440,0.904,0.032,0.4054,0.1322,-0.3256,0.1667,-0.7495,0
21291940,0.9044,0.03,0.4039,0.1342,-0.3882,-0.2806,-0.206,0
21292440,0.9077,0.0277,0.3958,0.1363,-0.2545,-0.0287,1.3581,0
21292940,0.9157,0.0157,0.374,0.1459,-0.214,0.2979,3.833,0
21293440,0.9353,-0.0021,0.3177,0.156,-1.8092,1.6705,4.4988,0
21293940,0.9583,-0.0502,0.2264,0.1668,-2.4475,0.4916,2.0153,0
21294440,0.9753,-0.1058,0.1083,0.1607,-3.5546,-1.8833,-0.4588,0
21294940,0.9816,-0.1278,-0.0249,0.1399,-2.3816,-2.728,-1.3097,0
21295440,0.9769,-0.1008,-0.1469,0.1181,-2.2452,-1.3223,-2.8885,0
21295941,0.9584,-0.07,-0.2556,0.1058,0.3406,1.0729,-2.9872,0
21296441,0.9326,-0.0642,-0.3463,0.0794,1.989,-0.2381,-1.8019,0
21296941,0.9068,-0.0629,-0.4151,0.0374,3.4436,-0.781,-1.3171,0
21297441,0.8869,-0.0722,-0.4559,-0.017,3.1521,0.8834,-0.0762,0
21297941,0.8738,-0.1022,-0.4716,-0.0605,1.0875,1.6749,-1.2028,0
21298441,0.8685,-0.1175,-0.4765,-0.0697,0.1223,0.0534,-0.3064,0
21298941,0.8698,-0.1152,-0.4753,-0.0659,-0.1052,-0.5534,0.3305,0
21299441,0.87,-0.1143,-0.4741,-0.0725,0.8317,-0.7017,0.3171,0
21299941,0.8712,-0.1128,-0.4723,-0.0726,1.6439,-0.5905,0.1643,0
21300441,0.8741,-0.1121,-0.4681,-0.0659,0.0329,-0.4495,-0.7409,0
21300941,0.8755,-0.1142,-0.4655,-0.0616,0.5705,0.0366,0.1556,0
21301441,0.8773,-0.114,-0.4626,-0.0579,0.8194,-0.2493,-0.7103,0
21301941,0.8859,-0.1091,-0.4487,-0.0447,2.6057,-0.9781,-0.0988,0
21302441,0.9048,-0.0979,-0.4139,-0.0201,2.9809,0.8445,-1.0617,0
21302941,0.9312,-0.1014,-0.3497,0.0181,2.5871,0.5705,-1.9186,0
21303441,0.9529,-0.1107,-0.2761,0.0583,-0.7129,0.6445,-1.3517,0
21303941,0.9684,-0.1324,-0.1864,0.0998,0.2352,-0.8992,-3.2623,0
21304441,0.9777,-0.1384,-0.0828,0.1349,-1.1925,-2.1682,0.1177,0
21304941,0.9822,-0.0936,0.0254,0.1609,0.1126,-2.1943,-4.2397,0
21305441,0.9751,-0.0154,0.137,0.1735,-3.8454,1.0844,2.7238,0
21305941,0.9568,0.0127,0.2297,0.1777,-1.5554,0.5155,-1.8715,0
21306441,0.9346,0.0153,0.3045,0.183,-1.2996,0.7198,3.1251,0
21306941,0.9173,0.0134,0.3501,0.1894,-2.3676,-1.1056,2.4705,0
21307441,0.906,0.0236,0.3784,0.1881,-0.0331,0.3455,0.6472,0
21307941,0.8967,0.027,0.4004,0.1869,-0.6721,0.6042,0.1046,0
21308441,0.8896,0.0293,0.4163,0.1854,-0.4091,1.058,1.2369,0
21308941,0.8904,0.0281,0.4155,0.1838,-0.5456,0.0611,-0.0906,0
21309441,0.8925,0.0318,0.4116,0.1817,-0.7252,0.7817,0.4078,0
21309941,0.8962,0.0323,0.4024,0.1838,-0.3992,-0.4072,0.1257,0
21310441,0.9022,0.0319,0.3873,0.1873,-0.0063,0.0569,1.6413,0
21310941,0.9141,0.0295,0.355,0.1938,-0.6427,0.2165,2.6382,0
21311441,0.933,0.0193,0.2979,0.201,-1.7201,0.4539,2.3756,0
21311941,0.9755,0.0418,0.2153,-0.0186,-1.7079,1.0311,1.3875,0
21312441,0.9913,-0.0188,0.1286,-0.0213,-2.6311,0.1972,0.1097,0
21312941,0.9964,-0.0728,0.0272,-0.0328,-2.4406,-0.2696,-1.6334,0
21313441,0.9904,-0.1008,-0.0795,-0.0511,-1.6302,-1.2238,-1.6272,0
21313941,0.9763,-0.1088,-0.176,-0.0641,-0.7674,-0.3983,-2.2212,0
21314441,0.9555,-0.1177,-0.2577,-0.0819,1.9084,0.2711,-1.429,0
21314941,0.9317,-0.1368,-0.3166,-0.114,2.1167,-0.0657,-1.2667,0
21315441,0.9066,-0.1598,-0.3555,-0.1617,2.1409,-0.5707,-1.6653,0
21315941,0.8782,-0.1842,-0.384,-0.2178,1.028,0.021,-0.2123,0
21316441,0.8508,-0.2095,-0.4043,-0.2622,1.2199,0.7388,0.0202,0
21316941,0.8381,-0.2228,-0.4149,-0.2752,1.152,-1.6037,-0.2241,0
21317441,0.8435,-0.2156,-0.4121,-0.2687,1.5997,-0.5525,0.1818,0
21317941,0.8489,-0.2116,-0.4036,-0.2679,-0.5477,0.0615,-1.0646,0
21318441,0.8486,-0.2121,-0.4018,-0.271,-0.8322,-0.8344,0.1915,0
21318941,0.8468,-0.2124,-0.4029,-0.2749,0.7315,-0.0263,-0.2141,0
21319441,0.8469,-0.2157,-0.3998,-0.2763,0.5391,-0.7358,0.4794,0
21319941,0.8502,-0.214,-0.3954,-0.2739,-0.3859,0.0997,-0.7396,0
21320441,0.8541,-0.2108,-0.3894,-0.2728,1.0218,-0.4215,-0.5444,0
21320941,0.8655,-0.2029,-0.3709,-0.2685,2.4897,-0.8393,-0.8723,0
21321441,0.89,-0.1854,-0.3323,-0.2513,3.5905,-1.2675,-1.9842,0
21321941,0.9244,-0.1657,-0.264,-0.2199,1.6091,0.5624,0.5865,0
21322441,0.9559,-0.1544,-0.1749,-0.1783,-0.9687,-0.8922,-2.2275,0
21322941,0.9776,-0.1396,-0.0794,-0.1359,-0.7215,-0.1808,-1.3313,0
21323441,0.9891,-0.1122,0.0129,-0.0941,-1.6014,0.3339,-0.0856,0
21323941,0.9922,-0.054,0.0956,-0.0588,-3.0054,0.0227,-1.7002,0
21324441,0.9858,0.0322,0.1602,-0.0386,-0.8716,1.7145,1.8062,0
21324941,0.9725,0.0771,0.2179,-0.0297,-0.3165,1.0928,0.0269,0
21325441,0.9575,0.1006,0.2698,-0.0196,-1.9952,1.1344,2.8221,0
21325941,0.9453,0.103,0.3094,-0.0097,-0.8951,-0.4821,0.2667,0
21326441,0.9333,0.1091,0.3422,-0.0056,-0.6148,0.064,0.5302,0
21326941,0.9216,0.1112,0.3719,-0.0029,-0.3285,0.5747,1.4536,0
21327441,0.9149,0.1118,0.3879,-0.0027,-0.1345,0.0861,0.9512,0
21327941,0.9115,0.1138,0.3951,-0.0067,-0.2529,-0.1384,0.3888,0
21328441,0.9095,0.1168,0.3987,-0.0111,-0.227,0.7032,0.4991,0
21328941,0.9101,0.1172,0.3972,-0.0133,-0.3026,0.1342,0.0177,0
21329441,0.9128,0.1191,0.3904,-0.0164,-0.2941,0.5026,0.1925,0
21329941,0.918,0.1152,0.379,-0.0163,-0.4905,-0.1585,0.7428,0
21330441,0.9274,0.1009,0.3598,-0.016,-0.2656,0.0548,1.9688,0
21330941,0.9433,0.0767,0.322,-0.0235,-0.7441,1.632,2.8412,0
21331441,0.9636,0.0248,0.2645,-0.0289,-1.6327,0.7112,2.7162,0
21331941,0.982,-0.0426,0.1804,-0.0365,-2.626,0.4851,1.2859,0
21332441,0.9916,-0.0969,0.0695,-0.0503,-3.1312,-0.2471,-1.4709,0
21332941,0.9898,-0.1137,-0.0473,-0.0718,-2.4545,-1.5107,-2.2111,0
21333441,0.9787,-0.1055,-0.152,-0.0886,1.6155,0.752,-2.1126,0
21333941,0.9594,-0.114,-0.2306,-0.1153,2.7138,-0.0807,-2.8424,0
21334441,0.9364,-0.1364,-0.2802,-0.1615,2.0543,0.3448,-1.8415,0
21334941,0.9127,-0.1686,-0.3083,-0.2086,1.05,-0.7065,-0.9667,0
21335441,0.8928,-0.1894,-0.3303,-0.2409,0.2676,0.4535,-0.4248,0
21335941,0.8784,-0.1959,-0.3553,-0.2526,-0.4504,-0.6091,0.2073,0
21336441,0.8695,-0.1931,-0.3737,-0.259,2.0391,-0.3703,0.6797,0
21336941,0.8643,-0.1959,-0.3777,-0.2683,1.7398,-0.6725,-0.4762,0
21337441,0.8639,-0.2007,-0.3751,-0.2695,0.4301,-0.8703,-0.6736,0
21337941,0.8677,-0.2024,-0.3692,-0.2643,0.2969,-0.4532,-0.2798,0
21338441,0.871,-0.2018,-0.3639,-0.2611,-0.144,-0.1154,-0.027,0
21338941,0.8769,-0.1972,-0.3559,-0.256,1.483,-0.8406,0.5253,0
21339441,0.8867,-0.1906,-0.3402,-0.2484,0.271,-0.4061,-1.1571,0
21339941,0.9005,-0.1834,-0.3165,-0.2352,1.2998,-0.9673,-0.4273,0
21340441,0.9178,-0.1704,-0.2836,-0.2194,1.0194,0.2584,-0.6329,0
21340941,0.9392,-0.1591,-0.2325,-0.1965,1.1251,-0.7178,-1.4633,0
21341441,0.9598,-0.145,-0.167,-0.1726,1.1214,0.5726,-1.2324,0
21341941,0.9767,-0.1315,-0.0812,-0.1487,-0.3156,-1.5448,-2.2143,0
21342441,0.9862,-0.0994,0.0055,-0.132,-1.4908,-0.1557,-1.1333,0
21342941,0.9867,-0.0544,0.0916,-0.123,-2.9618,-4.0748,-4.4827,0
21343441,0.9781,0.0155,0.17,-0.1189,2.6406,1.1812,-0.1198,0
21343941,0.9614,0.0439,0.2506,-0.1049,-1.5137,1.7367,2.4308,0
21344441,0.9455,0.0677,0.3085,-0.0788,-0.8968,-0.1065,1.5445,0
21344941,0.9307,0.0995,0.3472,-0.0588,-1.839,1.8009,1.8652,0
21345441,0.9179,0.1182,0.3769,-0.0386,-0.4677,1.5003,1.2886,0
21345942,0.9086,0.1212,0.399,-0.022,-0.8075,-0.3294,0.085,0
21346442,0.9012,0.1231,0.4153,-0.018,0.1722,0.199,1.056,0
21346942,0.9013,0.1218,0.4151,-0.0218,-0.5315,0.0782,0.4067,0
21347442,0.9038,0.1236,0.4087,-0.0292,-0.2345,0.4684,0.2081,0
21347942,0.9074,0.1232,0.4005,-0.0326,-0.2464,0.2562,-0.7559,0
21348442,0.9093,0.1215,0.3968,-0.0317,-0.34,0.0937,-0.3677,0
21348942,0.9109,0.1194,0.3937,-0.0311,-0.2336,0.3821,0.7188,0
21349442,0.9163,0.1127,0.3829,-0.0325,-0.203,-0.3409,1.5352,0
21349942,0.9283,0.0942,0.358,-0.0355,-0.1557,0.8322,2.2043,0
21350442,0.9453,0.0597,0.3184,-0.037,-0.5483,1.4518,2.4602,0
21350942,0.9646,-0.0026,0.2613,-0.0369,-1.7826,0.5599,2.1376,0
21351442,0.98,-0.0661,0.1818,-0.0471,-3.1497,1.1811,0.1378,0
21351942,0.9882,-0.1128,0.0825,-0.0627,-3.044,-0.9227,-0.9546,0
21352442,0.989,-0.1205,-0.0226,-0.0833,-1.2663,-1.0515,-2.1247,0
21352942,0.9823,-0.1097,-0.1166,-0.0972,-1.1012,0.1299,-2.5955,0
21353442,0.9675,-0.1169,-0.196,-0.1086,2.3529,0.4828,-2.0018,0
21353942,0.9493,-0.1373,-0.2539,-0.1244,0.8642,-0.1114,-1.6694,0
21354442,0.9295,-0.1593,-0.2973,-0.1489,1.6963,-0.0284,-0.6126,0
21354942,0.9084,-0.1795,-0.3286,-0.186,0.8051,0.4523,-0.3124,0
21355442,0.8804,-0.2063,-0.3594,-0.2306,-0.1183,-0.9187,0.6606,0
21355942,0.8614,-0.218,-0.3815,-0.2547,2.9436,-1.7949,0.0223,0
21356442,0.865,-0.2128,-0.3746,-0.2574,0.9767,-1.2396,-1.4967,0
21356942,0.8701,-0.2002,-0.3654,-0.2632,0.4561,0.1847,-0.1599,0
21357442,0.8693,-0.2008,-0.3585,-0.2747,-0.0346,-0.5402,0.6283,0
21357942,0.8721,-0.1949,-0.3522,-0.2782,-0.0357,-0.4086,0.3755,0
21358442,0.879,-0.1845,-0.3441,-0.2737,0.0597,-1.1836,-0.3958,0
21358942,0.8915,-0.1739,-0.3274,-0.2604,1.0955,-0.8171,-0.491,0
21359442,0.9387,-0.0877,-0.3326,-0.023,1.8931,0.4138,-0.985,0
21359942,0.9524,-0.0875,-0.2916,0.0128,1.0824,0.6393,-1.2117,0
21360442,0.9657,-0.0901,-0.2383,0.0497,0.8019,1.1755,-1.1111,0
21360942,0.9767,-0.0948,-0.1738,0.0827,0.5126,0.8015,-1.2193,0
21361442,0.9842,-0.0971,-0.1002,0.1088,-0.0562,-0.6119,-0.7634,0
21361942,0.9883,-0.0915,-0.0139,0.121,0.3118,-1.7846,-1.1801,0
21362442,0.9873,-0.0502,0.0817,0.1268,-0.0722,-0.9595,-3.3066,0
21362942,0.976,-0.0187,0.1769,0.1257,-1.5793,1.1031,1.0236,0
21363442,,,,,,,,
