SampleTimeFine,Quat_W,Quat_X,Quat_Y,Quat_Z,FreeAcc_X,FreeAcc_Y,FreeAcc_Z,Status
21255480,0.5845,0.5502,-0.2617,-0.5358,-0.6584,0.0818,2.9164,0
21255980,0.4974,0.6014,-0.3394,-0.5251,2.5998,-8.8285,19.2701,0
21256480,0.5295,0.5292,-0.3498,-0.5631,0.2855,2.168,2.8877,0
21256980,0.5056,0.5048,-0.3217,-0.6213,1.5007,0.8858,1.7602,0
21257480,0.5018,0.4748,-0.2541,-0.6769,3.1113,4.0722,-1.4726,0
21257980,0.5084,0.4302,-0.1571,-0.7292,2.3304,2.7129,-1.3047,0
21258480,0.5535,0.3391,-0.0147,-0.7605,-2.0108,6.4099,0.9121,0
21258980,0.5968,0.2986,0.0558,-0.7427,-0.1131,1.322,0.2553,0
21259480,0.6636,0.2492,0.1555,-0.688,-0.3018,0.7962,-2.557,0
21259980,0.7146,0.2437,0.2276,-0.615,1.1372,-2.6835,-5.5305,0
21260480,0.7431,0.248,0.3064,-0.5407,-1.8735,-1.9975,-5.1704,0
21260980,0.759,0.2934,0.3574,-0.4583,-5.2817,-0.894,-6.6169,0
21261480,0.7145,0.4813,0.2938,-0.4141,0.2236,2.9223,-9.1425,0
21261980,0.692,0.546,0.282,-0.3788,-2.1719,1.8314,-0.7765,0
21262480,0.7199,0.5151,0.2892,-0.3644,-1.701,-0.6951,-2.4804,0
21262980,0.7407,0.4761,0.3053,-0.3627,-2.0524,-0.4703,-2.3262,0
21263480,0.71,0.5043,0.288,-0.3982,-1.1472,1.0389,-2.7192,0
21263980,0.6745,0.5034,0.2724,-0.4662,1.5415,2.6605,-3.0445,0
21264480,0.6469,0.4858,0.2381,-0.5374,5.5367,0.4402,-4.1732,0
21264980,0.6977,0.3192,0.321,-0.5552,-3.9796,2.1782,-4.5397,0
21265480,0.6398,0.3458,0.2334,-0.6454,1.6214,1.1061,-2.8521,0
21265980,0.6225,0.2844,0.1892,-0.7041,0.057,0.331,-2.9934,0
21266480,0.6392,0.1546,0.2154,-0.7219,-4.856,-0.034,-1.7082,0
21266980,0.6165,0.1724,0.1336,-0.7565,-3.4996,1.2042,-0.3692,0
21267480,0.6069,0.2257,0.0346,-0.7613,-2.4122,-0.3521,-0.549,0
21267980,0.5454,0.4155,-0.1575,-0.7107,4.2685,-1.1388,-0.3226,0
21268480,0.519,0.5033,-0.2065,-0.6593,3.0215,-0.1717,0.2231,0
21268980,0.4982,0.589,-0.2278,-0.5941,0.8187,-0.7547,1.3758,0
21269480,0.484,0.6695,-0.245,-0.5074,0.0362,-0.5527,3.464,0
21269980,0.483,0.7238,-0.2562,-0.4209,-1.397,-0.2463,5.7883,0
21270480,0.4791,0.745,-0.2815,-0.3691,-6.2214,-3.8024,30.4799,0
21270980,0.6327,0.5674,-0.2124,-0.4824,-4.4156,2.4599,-11.5574,0
21271480,0.4751,0.7236,-0.3046,-0.3974,-2.75,-3.4496,11.7052,0
21271980,0.5271,0.6758,-0.2671,-0.4405,1.1681,0.2306,-3.6792,0
21272480,0.5136,0.6866,-0.266,-0.4404,-1.5055,-0.8136,4.2596,0
21272980,0.4907,0.6928,-0.2549,-0.4628,-3.6023,-1.4564,10.3651,0
21273480,0.4868,0.6634,-0.2024,-0.5309,-1.0248,-1.8449,8.8275,0
21273980,0.4841,0.6158,-0.1305,-0.6078,3.9927,-1.4556,5.6155,0
21274480,0.4953,0.5359,-0.0325,-0.6829,6.1861,0.4769,0.7651,0
21274980,0.5223,0.4247,0.0955,-0.7333,3.5905,2.0233,-2.1925,0
21275480,0.5471,0.3241,0.211,-0.7424,2.1013,1.6458,-3.2788,0
21275980,0.5913,0.2112,0.331,-0.7044,-1.0301,0.8992,-4.2501,0
21276480,0.6146,0.1755,0.3898,-0.663,-0.5208,1.0345,-4.6917,0
21276980,0.6321,0.1544,0.4414,-0.6179,-2.2551,0.5079,-3.9683,0
21277480,0.6368,0.1652,0.4772,-0.5826,-2.5485,0.0178,-2.7176,0
21277980,0.6387,0.2003,0.5015,-0.548,-3.3304,-0.1241,-4.0792,0
21278480,0.6384,0.2509,0.512,-0.5171,-5.1487,0.4854,-2.9618,0
21278980,0.659,0.2986,0.4943,-0.4819,-5.1082,0.0181,-4.2679,0
21279480,0.6855,0.3446,0.4609,-0.446,-4.4949,-0.4089,-2.9615,0
21279980,0.7229,0.3633,0.4317,-0.3989,-3.6949,-2.6262,-1.303,0
21280480,0.7425,0.4079,0.391,-0.3597,0.299,-2.1842,-1.2692,0
21280980,0.7069,0.5091,0.3393,-0.3549,3.1948,0.6217,2.4215,0
21281480,0.7144,0.5053,0.3456,-0.3389,1.6692,0.7352,1.9596,0
21281980,0.714,0.505,0.3504,-0.3354,0.8658,0.6332,0.7784,0
21282480,0.7113,0.5003,0.3577,-0.3402,-0.2381,0.2659,0.2852,0
21282980,0.7006,0.4886,0.3661,-0.3694,0.405,0.3489,-1.3489,0
21283480,0.7028,0.4251,0.3934,-0.413,-1.5337,0.3074,-5.152,0
21283980,0.6471,0.4161,0.362,-0.5264,2.8882,0.1163,-8.1343,0
21284480,0.6523,0.2843,0.3962,-0.5803,-0.4026,-0.7729,-9.3667,0
21284980,0.6276,0.1646,0.4205,-0.6342,-5.4222,-0.6258,-7.4725,0
21285480,0.5854,0.1384,0.3758,-0.7049,-2.8651,-0.9857,-2.2311,0
21285980,0.5672,0.1343,0.328,-0.7434,-5.7924,3.8272,2.7195,0
21286480,0.5563,0.2385,0.1879,-0.7735,-0.8428,-1.0793,0.5375,0
21286980,0.5338,0.4042,0.0182,-0.7426,0.7986,-1.2589,-1.8144,0
21287480,0.4976,0.5557,-0.1237,-0.6545,3.0887,-2.4182,7.644,0
21287980,0.5247,0.591,-0.1786,-0.5861,1.1994,-0.8486,3.1604,0
21288480,0.5388,0.626,-0.2409,-0.5097,1.043,-0.7192,2.7842,0
21288980,0.5291,0.6607,-0.2948,-0.4435,2.262,-4.3382,9.3961,0
21289480,0.5656,0.6419,-0.2684,-0.4428,-4.2106,-3.8985,10.9441,0
21289981,0.6105,0.5904,-0.2355,-0.4725,-0.4466,0.8621,-6.9094,0
21290481,0.5595,0.6541,-0.2645,-0.4348,1.192,-1.4033,3.4713,0
21290981,0.5754,0.639,-0.257,-0.4411,-0.2659,-1.3239,-1.8221,0
21291481,0.5735,0.6439,-0.2606,-0.4343,-0.1394,-0.6879,0.1059,0
21291981,0.5691,0.6497,-0.2606,-0.4314,-0.8514,-0.5421,1.9871,0
21292481,0.5363,0.6747,-0.2656,-0.432,-0.7541,-2.3359,10.375,0
21292981,0.52,0.6572,-0.2361,-0.4918,-1.082,-3.8313,10.8259,0
21293481,0.5018,0.6133,-0.1735,-0.5847,0.9318,-3.5955,8.5094,0
21293981,0.5082,0.5277,-0.0785,-0.6761,3.1528,0.4035,2.2805,0
21294481,0.5346,0.4077,0.0477,-0.7387,5.017,1.8353,-0.4446,0
21294981,0.5731,0.2675,0.1882,-0.7514,2.2855,4.2429,-1.4167,0
21295481,0.6145,0.1496,0.3014,-0.7136,-0.2957,2.2047,-2.9706,0
21295981,0.659,0.0751,0.3909,-0.6382,-1.5281,0.1236,-3.105,0
21296481,0.6951,0.0535,0.462,-0.5482,-2.2014,-2.986,-4.7051,0
21296981,0.7117,0.0878,0.5268,-0.4563,-2.6331,-4.6624,-8.5914,0
21297481,0.683,0.222,0.5508,-0.4253,-6.4976,-0.3537,-11.4613,0
21297981,0.5931,0.3979,0.5048,-0.4848,-2.4189,0.7342,0.0689,0
21298481,0.6051,0.4027,0.5082,-0.462,-2.8729,0.3399,-2.0119,0
21298981,0.6841,0.3275,0.5389,-0.3665,-5.0354,-2.5803,-1.1441,0
21299481,0.6812,0.4017,0.4997,-0.3535,-0.8528,-2.1565,-0.6036,0
21299981,0.6428,0.5105,0.4348,-0.3702,3.4513,-1.5472,1.358,0
21300481,0.6666,0.4912,0.4561,-0.3261,-0.1212,0.641,-0.0214,0
21300981,0.6414,0.5322,0.4386,-0.3362,1.1147,1.0028,1.3437,0
21301481,0.6477,0.5179,0.4504,-0.3307,-0.2311,0.8632,-0.1511,0
21301981,0.6598,0.4711,0.4721,-0.3463,-2.6897,0.325,-2.0781,0
21302481,0.6327,0.4501,0.4499,-0.4412,-1.5697,1.8914,-8.3852,0
21302981,0.5595,0.4537,0.3518,-0.5978,4.1679,-0.1354,-9.7661,0
21303481,0.5917,0.3055,0.3652,-0.6505,-1.413,-1.1112,-9.8989,0
21303981,0.598,0.1536,0.3944,-0.6805,-5.8323,0.6847,-3.3467,0
21304481,0.5702,0.1523,0.2887,-0.7539,-0.5933,0.2539,0.1992,0
21304981,0.5817,0.1418,0.2019,-0.7751,-12.0173,4.0963,-0.1341,0
21305481,0.538,0.4057,-0.117,-0.7295,9.0554,-8.9355,-0.4172,0
21305981,0.492,0.56,-0.2478,-0.6188,6.6974,-5.0226,9.3349,0
21306481,0.5557,0.5671,-0.2318,-0.5621,-0.9995,-0.8849,3.2552,0
21306981,0.5183,0.6516,-0.2874,-0.4735,0.4986,-0.9161,6.8795,0
21307481,0.5448,0.6643,-0.2901,-0.4217,0.336,0.0874,1.9466,0
21307981,0.525,0.6995,-0.2965,-0.3836,-2.2222,-7.7773,15.3676,0
21308481,0.5856,0.6409,-0.2536,-0.4266,-3.3268,0.9066,-5.8405,0
21308981,0.544,0.6857,-0.2698,-0.4014,-0.6771,-3.0023,4.9779,0
21309481,0.5577,0.6693,-0.2639,-0.414,-0.4028,-1.1482,-1.105,0
21309981,0.5566,0.666,-0.2698,-0.4169,-0.9009,-1.1508,3.0679,0
21310481,0.5552,0.6539,-0.2684,-0.4383,-1.1695,-2.0328,6.6014,0
21310981,0.5545,0.6247,-0.2547,-0.4872,-1.3442,-2.7809,7.8395,0
21311481,0.5632,0.5738,-0.2127,-0.5553,-0.3543,-2.1693,5.6894,0
21311981,0.5741,0.5131,-0.1588,-0.618,2.3523,-1.0316,4.864,0
21312481,0.6028,0.421,-0.0713,-0.674,5.0497,-0.0494,1.5587,0
21312981,0.9537,0.1689,0.245,-0.0434,-2.0955,2.2037,-0.4139,0
21313481,0.9683,0.0213,0.2485,-0.0136,-0.9737,1.6411,-1.9515,0
21313981,0.9559,-0.128,0.2602,0.047,-0.0612,-0.9786,-2.8982,0
21314481,0.9247,-0.214,0.2947,0.1109,2.0621,-1.486,-3.9968,0
21314981,0.8819,-0.2598,0.3573,0.1644,3.0451,-1.6499,-5.4783,0
21315481,0.8315,-0.2575,0.4541,0.1899,2.9921,-4.4442,-5.6369,0
21315981,0.7878,-0.172,0.5631,0.1807,0.409,-4.0859,-7.8934,0
21316481,0.752,0.0115,0.6526,0.0918,-2.6137,-0.5264,-2.1884,0
21316981,0.747,0.0226,0.6524,0.1262,0.0045,0.7747,-2.6666,0
21317481,0.7449,-0.0915,0.6188,0.2321,1.5004,-4.9243,-0.5335,0
21317981,0.7461,-0.0725,0.6195,0.233,1.5273,-1.9116,-1.038,0
21318481,0.7392,0.0131,0.6407,0.2072,1.2159,1.9015,0.4837,0
21318981,0.724,0.0215,0.6504,0.2288,0.8595,-0.4578,-0.0218,0
21319481,0.7165,0.0296,0.6553,0.2373,0.3496,-0.6647,0.318,0
21319981,0.7168,0.0623,0.6591,0.2189,0.0811,1.2841,-0.5181,0
21320481,0.7191,0.0254,0.6527,0.2372,0.0474,-1.5602,-1.0775,0
21320981,0.7397,0.0245,0.6446,0.1916,-0.1896,-1.869,-3.5181,0
21321481,0.7882,0.0307,0.606,0.1027,-1.2693,-1.0628,-9.8595,0
21321981,0.8402,0.0706,0.5372,-0.0241,-0.1245,0.4313,-11.4466,0
21322481,0.8828,0.1051,0.4424,-0.1181,5.5105,2.5559,-6.5538,0
21322981,0.917,-0.012,0.3811,-0.1175,1.0355,0.6392,-2.335,0
21323481,0.9321,-0.1542,0.3169,-0.0834,-4.5716,-13.3887,2.1948,0
21323981,0.9585,0.0618,0.2575,-0.1054,0.287,-4.3435,-1.6133,0
21324481,0.848,0.4749,0.211,-0.1036,5.1236,7.664,2.1771,0
21324981,0.7856,0.581,0.21,-0.035,3.1486,3.6986,6.6919,0
21325481,0.7699,0.6024,0.2063,0.0425,3.0645,-0.4655,4.1153,0
21325981,0.697,0.6705,0.2381,0.089,1.1553,1.4759,6.1469,0
21326481,0.6469,0.7065,0.2622,0.117,-3.3933,4.1101,5.744,0
21326981,0.6376,0.7017,0.2969,0.1133,1.2564,-1.2956,2.6693,0
21327481,0.6431,0.6871,0.3184,0.1137,1.8512,-2.1485,-0.1854,0
21327981,0.6276,0.6918,0.3387,0.1133,1.547,-1.0748,0.798,0
21328481,0.6216,0.6905,0.3512,0.1158,1.1948,-0.3865,0.5324,0
21328981,0.6226,0.6888,0.3527,0.1167,1.0959,-0.7592,0.1701,0
21329481,0.6246,0.6894,0.3484,0.1151,1.6798,-1.1973,3.2081,0
21329981,0.6349,0.682,0.3493,0.0993,1.6909,-0.9103,8.1309,0
21330481,0.6874,0.6324,0.3507,0.0678,3.1311,-1.5812,6.0618,0
21330981,0.7269,0.585,0.3593,0.0177,3.1401,-0.271,6.6023,0
21331481,0.7817,0.5033,0.3674,-0.0239,1.5177,2.5465,4.991,0
21331981,0.85,0.3772,0.3661,-0.0345,-0.7925,3.5453,2.7623,0
21332481,0.9028,0.2318,0.3619,-0.0179,-1.9175,3.0304,0.2172,0
21332981,0.9273,0.0816,0.364,0.0301,-1.189,0.4755,-3.3433,0
21333481,0.919,-0.0498,0.3751,0.1109,1.5191,-0.666,-5.6951,0
21333981,0.8831,-0.1271,0.4142,0.1803,2.6324,-0.3139,-6.2292,0
21334481,0.836,-0.1372,0.4849,0.2171,2.2323,-2.0866,-8.3,0
21334981,0.7914,-0.0953,0.5679,0.2052,-0.5912,-3.9139,-6.1158,0
21335481,0.7585,0.0033,0.6326,0.1563,-1.0652,-1.148,-2.922,0
21335981,0.7346,-0.0263,0.6339,0.2406,0.264,-1.8298,-2.0145,0
21336481,0.7155,-0.0072,0.634,0.2935,1.9676,-3.7226,-0.7047,0
21336981,0.6981,0.0246,0.6368,0.3265,2.5419,-2.1934,-1.3803,0
21337481,0.6702,0.1289,0.6757,0.2787,0.0796,1.6519,1.1711,0
21337981,0.667,0.1071,0.6717,0.304,-0.6848,-0.3561,0.3539,0
21338481,0.6658,0.1162,0.6759,0.2938,-0.5351,0.3007,0.7834,0
21338981,0.679,0.0872,0.6657,0.2971,-0.1613,-1.7031,0.0981,0
21339481,0.7021,0.0889,0.6559,0.2624,-0.7198,0.6934,-1.3759,0
21339982,0.7389,0.0129,0.6177,0.2688,-1.0274,-1.875,-3.5482,0
21340482,0.7856,0.0333,0.5889,0.1869,-1.0709,0.0242,-7.0632,0
21340982,0.837,0.0305,0.5343,0.1139,-1.5976,0.2931,-7.1773,0
21341482,0.8939,0.0183,0.4449,0.0522,0.925,0.3074,-9.4963,0
21341982,0.9268,0.0271,0.374,-0.0212,1.2296,0.1562,-4.9999,0
21342482,0.949,-0.0118,0.3115,-0.0478,-1.8357,-2.3688,3.1373,0
21342982,0.9596,0.0495,0.2691,-0.0653,1.0184,-6.9935,-1.7825,0
21343482,0.9085,0.3076,0.271,-0.0806,5.8964,1.9352,1.6747,0
21343982,0.8041,0.5142,0.2896,-0.0716,6.3561,5.047,9.6683,0
21344482,0.8075,0.5108,0.2947,-0.0162,1.7626,-0.3277,-0.1547,0
21344982,0.7413,0.5977,0.3041,0.0289,0.5703,1.2086,2.5883,0
21345482,0.7016,0.6417,0.2929,0.1008,-1.0795,0.8324,-1.6008,0
21345982,0.686,0.6471,0.3047,0.1339,2.293,1.6796,13.8822,0
21346482,0.7632,0.5679,0.2715,0.1458,0.1137,-2.815,-6.2079,0
21346982,0.6599,0.6694,0.3212,0.115,3.0456,-0.0699,6.9728,0
21347482,0.6968,0.6388,0.3048,0.1161,0.8035,0.3755,-4.0806,0
21347982,0.676,0.6625,0.3038,0.109,1.4016,1.3718,-0.0354,0
21348482,0.6824,0.659,0.2951,0.114,0.7031,0.5954,-0.2108,0
21348982,0.6846,0.6576,0.2925,0.1155,0.8406,-2.1357,2.7687,0
21349482,0.6753,0.666,0.2992,0.1043,2.1088,-1.8836,8.373,0
21349982,0.7051,0.6311,0.3145,0.0742,3.48,0.1715,8.6332,0
21350482,0.7518,0.5665,0.3366,0.0263,2.8773,1.0852,6.8968,0
21350982,0.8026,0.4782,0.3561,-0.0172,0.9973,4.3259,3.5935,0
21351482,0.8692,0.3243,0.3721,-0.0304,-1.8197,3.9221,-0.6465,0
21351982,0.9182,0.1498,0.3667,-0.0011,-3.1191,-0.6186,-2.0142,0
21352482,0.9255,0.0563,0.3727,0.0373,-0.5567,1.7039,-2.5097,0
21352982,0.9161,-0.0704,0.376,0.1201,1.3903,-0.8079,-5.3391,0
21353482,0.8878,-0.0982,0.4149,0.1736,1.6584,2.8492,-4.8169,0
21353982,0.8473,-0.1703,0.4401,0.2435,2.4305,-0.7708,-4.9527,0
21354482,0.794,-0.2036,0.492,0.2933,2.4603,-3.721,-4.9539,0
21354982,0.7275,-0.1636,0.5907,0.3084,0.173,-10.4319,-4.3196,0
21355482,0.6835,0.09,0.6931,0.2105,-6.7988,-1.4349,-7.9242,0
21355982,0.6211,0.1929,0.7391,0.1751,-1.4627,3.3277,7.029,0
21356482,0.6583,0.096,0.6934,0.2766,-3.7511,-3.9864,-4.1594,0
21356982,0.6709,0.0967,0.675,0.2915,1.763,-0.628,0.376,0
21357482,0.6765,0.1293,0.6763,0.2612,1.3112,0.6597,1.1411,0
21357982,0.6876,0.1057,0.6609,0.2813,1.0436,-0.5962,0.268,0
21358482,0.7024,0.0891,0.6463,0.2846,1.136,-0.769,-0.392,0
21358982,0.726,0.0841,0.633,0.255,-0.0811,0.7999,-0.8641,0
21359482,0.7661,0.04,0.5954,0.2388,-0.6227,0.5341,-4.9842,0
21359982,0.8104,-0.0009,0.5533,0.1929,-1.1079,0.1971,-6.9408,0
21360482,0.6929,0.3562,0.3481,-0.5214,0.6843,1.5019,-5.1702,0
21360982,0.6973,0.2638,0.3121,-0.5888,-0.5765,-0.5292,-5.9023,0
21361482,0.6633,0.2398,0.2475,-0.6643,-0.3669,-0.0766,-3.7917,0
21361982,0.6544,0.1756,0.2262,-0.6998,-1.7052,-1.0575,1.0395,0
21362482,0.6444,0.1828,0.1764,-0.7212,-4.856,-0.5067,0.8627,0
21362982,0.6431,0.2843,0.0746,-0.7072,-0.9881,-3.0341,2.2553,0
21363482,0.5872,0.4909,-0.077,-0.639,5.8946,-3.1012,5.4409,0
