SampleTimeFine,Quat_W,Quat_X,Quat_Y,Quat_Z,FreeAcc_X,FreeAcc_Y,FreeAcc_Z,Status
21248323,0.6124,-0.5604,0.421,-0.3656,0.0757,-0.0273,-0.0887,0
21248490,0.6128,-0.5602,0.4203,-0.3661,0.0412,-0.0574,-0.0607,0
21248990,0.6138,-0.5602,0.4186,-0.3664,0.0084,-0.0288,-0.1222,0
21249490,0.6148,-0.56,0.4178,-0.3659,-0.047,0.1504,-0.0803,0
21249990,0.6154,-0.56,0.4176,-0.3651,-0.0318,0.0123,-0.0921,0
21250490,0.616,-0.5602,0.4173,-0.3642,0.0574,-0.0748,-0.1426,0
21250990,0.6165,-0.5603,0.4168,-0.3636,-0.0077,-0.073,-0.0964,0
21251490,0.6171,-0.5604,0.4165,-0.3628,0.0036,-0.0067,-0.1068,0
21251990,0.6175,-0.5602,0.4164,-0.3625,0.0258,0.0257,-0.1326,0
21252490,0.6177,-0.5603,0.4163,-0.3622,-0.0375,-0.0305,-0.0855,0
21252990,0.6177,-0.5602,0.4165,-0.3621,-0.0304,-0.0338,-0.0489,0
21253490,0.6177,-0.5602,0.4167,-0.3618,-0.0176,-0.0506,-0.0752,0
21253990,0.6181,-0.5604,0.4163,-0.3614,0.0638,-0.0654,-0.1768,0
21254490,0.6183,-0.5606,0.4158,-0.3613,-0.0759,-0.1026,-0.0889,0
21254990,0.6183,-0.5632,0.4138,-0.3596,1.3374,-0.5295,1.7475,0
21255490,0.6191,-0.5604,0.4577,-0.3052,-2.529,-8.4572,26.1719,0
21255990,0.7354,-0.4047,0.4441,-0.3132,5.8374,3.2936,1.2941,0
21256490,0.7626,-0.3603,0.4939,-0.2115,0.0354,0.8742,0.2278,0
21256990,0.7894,-0.2862,0.5233,-0.1456,-0.1229,0.6489,-1.3969,0
21257490,0.8071,-0.1998,0.5461,-0.1028,-2.9529,-1.1546,-2.0338,0
21257990,0.8246,-0.0775,0.5497,-0.1089,-1.9446,1.1032,3.156,0
21258490,0.8342,0.0416,0.5328,-0.1358,-2.46,2.1479,2.7129,0
21258990,0.8303,0.1212,0.5143,-0.1773,-1.665,1.2306,-0.5696,0
21259490,0.8091,0.1885,0.4975,-0.2496,1.0405,1.8307,-1.0661,0
21259990,0.7791,0.2133,0.489,-0.3292,0.4633,1.2655,-3.9184,0
21260490,0.715,0.2536,0.4764,-0.4444,6.0466,2.2978,-2.4605,0
21260990,0.6382,0.2011,0.5017,-0.5482,3.8178,-5.7427,-14.3171,0
21261490,0.5553,0.0857,0.6389,-0.5255,-5.1015,7.5961,-3.4843,0
21261990,0.5717,0.0452,0.6485,-0.5006,-7.1956,-0.958,-1.3683,0
21262490,0.5688,0.1423,0.5715,-0.5742,6.7329,2.3314,-3.3699,0
21262990,0.5962,0.0961,0.6139,-0.5083,-2.3237,1.8318,-2.1823,0
21263490,0.6449,0.1051,0.5958,-0.467,1.2654,-0.3108,-3.6487,0
21263990,0.6911,0.1076,0.5783,-0.4198,-6.6661,-1.3004,-2.3792,0
21264490,0.7104,0.2088,0.5017,-0.4472,5.9615,0.5248,-3.5597,0
21264990,0.7617,0.1576,0.5065,-0.3722,-4.286,0.0452,-1.136,0
21265490,0.7931,0.1943,0.4484,-0.3636,2.6675,-0.4795,-5.1069,0
21265990,0.8182,0.1757,0.4416,-0.3235,-1.9906,1.1861,-0.0316,0
21266490,0.8346,0.1743,0.4224,-0.3076,1.5437,0.2097,-0.1371,0
21266990,0.8476,0.1339,0.4224,-0.2919,0.4796,1.4353,-1.8194,0
21267490,0.8429,0.0642,0.4518,-0.285,0.0899,0.9611,0.7898,0
21267990,0.8224,-0.0377,0.4864,-0.2926,-1.6214,3.0436,-4.1821,0
21268490,0.7671,-0.2263,0.5267,-0.2879,-5.3102,-4.7001,-1.8047,0
21268990,0.7195,-0.2861,0.5148,-0.3679,0.8262,1.1771,-0.4846,0
21269490,0.6362,-0.4107,0.5108,-0.4069,-1.49,-1.1881,5.3801,0
21269990,0.5922,-0.4773,0.4699,-0.448,3.2627,-1.8983,15.4217,0
21270490,0.6666,-0.3953,0.3901,-0.4972,11.2851,8.4291,-4.968,0
21270990,0.6281,-0.4436,0.4452,-0.4588,-2.6916,0.3616,1.9439,0
21271490,0.6525,-0.4165,0.4346,-0.4604,-0.9105,-1.6539,1.045,0
21271990,0.6681,-0.3954,0.4478,-0.4436,-0.5744,-2.5267,4.4083,0
21272490,0.7078,-0.3342,0.466,-0.4124,0.8839,-1.7683,5.5645,0
21272990,0.7527,-0.2599,0.4934,-0.3499,1.7065,-2.1691,6.131,0
21273490,0.7963,-0.1656,0.5108,-0.2785,-0.4643,-2.5368,1.958,0
21273990,0.8276,-0.0414,0.5127,-0.2246,-2.5136,-0.6884,-0.9731,0
21274491,0.8353,0.1052,0.5018,-0.1984,-2.2346,2.2962,-1.4265,0
21274991,0.8148,0.2243,0.4932,-0.2061,-1.1423,1.5877,0.1289,0
21275491,0.7847,0.3066,0.4879,-0.2284,-1.1257,-0.0428,-0.4463,0
21275991,0.7582,0.3592,0.4747,-0.266,-1.6331,2.3785,-2.052,0
21276491,0.7392,0.3817,0.4539,-0.3192,-0.4376,0.2932,-3.0731,0
21276991,0.709,0.401,0.4367,-0.3818,-0.0438,0.28,-4.7084,0
21277491,0.668,0.4225,0.4322,-0.4342,0.7478,1.4031,-2.7499,0
21277991,0.6335,0.4201,0.4394,-0.4787,2.086,1.7943,-3.4166,0
21278491,0.6073,0.3755,0.4722,-0.5169,3.7411,2.7815,-3.1783,0
21278991,0.5918,0.2694,0.5312,-0.5432,-1.1265,0.8638,-5.8384,0
21279491,0.5645,0.2256,0.5464,-0.5762,-1.6451,2.883,-2.2264,0
21279991,0.5614,0.2387,0.5085,-0.6077,3.4689,-0.5596,-2.1104,0
21280491,0.5635,0.2147,0.5228,-0.6026,-1.1816,-0.8831,1.2035,0
21280991,0.5619,0.2094,0.5237,-0.605,-0.1888,-1.4602,0.9781,0
21281491,0.5576,0.2141,0.5201,-0.6105,0.1607,-0.9845,0.7898,0
21281991,0.5594,0.208,0.5319,-0.6007,-1.1598,1.2165,-0.1004,0
21282491,0.5666,0.2032,0.5398,-0.5885,-0.394,0.1665,-0.6762,0
21282991,0.595,0.2007,0.548,-0.5526,-0.6112,-1.4345,-2.6835,0
21283491,0.6412,0.2229,0.5448,-0.4924,-0.9728,-0.5744,-5.3615,0
21283991,0.6926,0.258,0.5173,-0.4314,-0.354,-0.9369,-10.2103,0
21284491,0.7379,0.3028,0.4852,-0.3584,1.2838,0.2786,-6.7954,0
21284991,0.7793,0.3112,0.4685,-0.2761,0.3118,1.6909,-4.8319,0
21285491,0.8165,0.288,0.4541,-0.2103,-0.6986,1.7678,-2.8288,0
21285991,0.8321,0.2628,0.453,-0.1825,-1.0704,3.7542,3.7917,0
21286491,0.8535,0.1553,0.4646,-0.1778,-0.6836,2.9978,1.6363,0
21286991,0.8477,0.0053,0.4843,-0.2163,0.2782,0.1304,1.2853,0
21287491,0.811,-0.1545,0.4912,-0.2776,-1.1199,0.0376,-0.7772,0
21287991,0.7457,-0.3204,0.4788,-0.3348,-2.433,-5.1851,3.0062,0
21288491,0.7137,-0.3761,0.4081,-0.4273,3.7606,-1.2708,1.9102,0
21288991,0.6289,-0.4871,0.4326,-0.4244,-18.6583,-17.3491,53.4746,0
21289491,0.7338,-0.3126,0.3032,-0.5214,12.6347,10.899,-6.7066,0
21289991,0.6623,-0.4298,0.4002,-0.4652,-8.5091,-3.6506,6.2966,0
21290491,0.7064,-0.3803,0.3547,-0.4802,2.5646,0.5123,-3.3706,0
21290991,0.7064,-0.3839,0.3578,-0.475,-0.4713,-2.306,-0.7073,0
21291491,0.7063,-0.383,0.3594,-0.4746,-0.0892,-1.4804,0.5884,0
21291991,0.6976,-0.3911,0.3863,-0.4595,-0.3089,-2.8081,7.9687,0
21292491,0.7228,-0.3623,0.4232,-0.4088,0.7643,-3.9601,12.9901,0
21292991,0.782,-0.2645,0.4567,-0.3317,1.8813,-2.3717,5.0482,0
21293491,0.8279,-0.143,0.482,-0.2487,-1.1556,-1.1646,-0.4932,0
21293991,0.8505,-0.0047,0.4895,-0.1923,-3.1934,-1.4473,-1.4329,0
21294491,0.8424,0.1561,0.4882,-0.1662,-3.7074,0.5942,-1.1992,0
21294991,0.8038,0.2989,0.485,-0.1713,-1.2743,0.2975,0.9821,0
21295491,0.7597,0.382,0.4923,-0.1858,-2.6447,0.6561,0.6153,0
21295991,0.7278,0.4272,0.487,-0.2248,-1.2566,0.728,-1.2115,0
21296491,0.6969,0.4499,0.4736,-0.296,1.0755,0.8594,-4.6487,0
21296991,0.6555,0.4481,0.4877,-0.3629,3.6419,1.7917,-5.9725,0
21297491,0.6471,0.3688,0.552,-0.375,1.4533,3.2543,-11.3829,0
21297991,0.6402,0.2954,0.613,-0.3565,0.2268,3.0084,-2.5963,0
21298491,0.6338,0.2792,0.6058,-0.3916,1.1407,0.8454,-1.4385,0
21298991,0.62,0.2529,0.6104,-0.4232,1.0869,0.953,-1.798,0
21299491,0.6243,0.1997,0.6276,-0.4202,-1.4854,-1.7121,-1.4,0
21299991,0.6163,0.2001,0.6207,-0.4413,-1.3374,-2.0288,0.5606,0
21300491,0.612,0.2133,0.6116,-0.4538,0.386,-1.503,-0.1184,0
21300991,0.6105,0.2085,0.6199,-0.4468,-0.6792,-1.172,-0.2824,0
21301491,0.6205,0.2079,0.6298,-0.4184,-1.8756,-0.6932,-0.9973,0
21301991,0.6604,0.2326,0.6127,-0.3667,-2.0445,-1.6591,-7.3149,0
21302491,0.704,0.2981,0.5701,-0.3007,0.3846,2.4487,-12.3465,0
21302991,0.7506,0.3393,0.5269,-0.2094,1.4975,2.3366,-8.8922,0
21303491,0.7708,0.3823,0.4886,-0.1449,1.0315,3.9894,-4.5164,0
21303991,0.8066,0.3497,0.467,-0.0951,-0.8237,4.9538,-0.5446,0
21304491,0.8416,0.2648,0.46,-0.0995,-1.8849,4.3385,4.7155,0
21304991,0.8639,0.0859,0.4721,-0.1532,0.9209,3.3036,1.4018,0
21305491,0.8162,-0.1962,0.5043,-0.2025,-4.1379,-7.1913,-2.8873,0
21305991,0.7356,-0.355,0.5118,-0.2662,-5.3933,-14.1444,8.7627,0
21306491,0.7343,-0.3305,0.4383,-0.3993,2.3493,2.3762,3.8449,0
21306991,0.8108,-0.5716,0.1044,0.0711,3.4257,-6.7492,7.8818,0
21307491,0.8382,-0.5369,0.0824,0.0485,0.2869,-0.1398,9.8538,0
21307991,0.8418,-0.5307,0.0878,0.0435,-1.6395,-0.6723,-0.695,0
21308491,0.8452,-0.5243,0.0898,0.0507,1.6008,-0.3021,-0.2076,0
21308991,0.8491,-0.5172,0.0912,0.0574,1.2734,-0.601,-1.1056,0
21309491,0.846,-0.5211,0.095,0.0612,1.1385,-0.6051,1.7507,0
21309991,0.8377,-0.529,0.1112,0.0775,1.7027,-1.7438,5.9913,0
21310491,0.8363,-0.5123,0.15,0.1251,1.9679,-0.0884,7.8699,0
21310991,0.8337,-0.4728,0.2106,0.1927,1.879,0.5385,4.3182,0
21311491,0.8245,-0.4168,0.2821,0.2587,2.4443,-1.5307,2.1055,0
21311991,0.8111,-0.3351,0.3621,0.3141,2.8269,-3.3902,-0.1798,0
21312491,0.7947,-0.225,0.4456,0.3453,0.0557,-2.9452,-0.2369,0
21312991,0.7736,-0.108,0.524,0.3397,-1.248,-1.5298,1.2737,0
21313491,0.7469,-0.0404,0.5798,0.3231,-1.1485,-3.0647,0.9602,0
21313991,0.7488,0.0123,0.5966,0.2886,-0.669,-2.3846,-2.2507,0
21314491,0.7631,0.0698,0.6063,0.2125,-1.5546,0.1432,-3.9499,0
21314991,0.7737,0.1026,0.6128,0.124,-0.718,3.0928,-4.5035,0
21315491,0.7769,0.076,0.6237,0.0405,2.4171,6.0202,-5.9288,0
21315991,0.7664,-0.0657,0.6385,0.0247,-3.1448,2.9007,-8.7789,0
21316491,0.7448,-0.2292,0.6229,0.0686,-1.751,-7.8178,-2.2156,0
21316991,0.7668,-0.1629,0.6208,0.009,0.2129,1.6005,-1.1359,0
21317491,0.7773,-0.1284,0.6157,-0.0135,0.8252,4.1112,0.0912,0
21317991,0.7724,-0.1874,0.6068,0.0086,0.4419,-3.307,0.6626,0
21318491,0.7778,-0.1854,0.6003,-0.0164,1.9585,-1.029,-0.1064,0
21318991,0.7803,-0.1823,0.5976,-0.0271,1.3066,-1.0771,0.1258,0
21319491,0.7804,-0.1736,0.5998,-0.0314,0.4657,0.082,0.2884,0
21319991,0.7764,-0.1842,0.6021,-0.0275,-0.4277,-1.0085,-0.692,0
21320491,0.7715,-0.1981,0.6046,0.0044,-0.3746,-1.0167,-2.549,0
21320991,0.7694,-0.204,0.5973,0.0982,1.6534,-2.5711,-5.2641,0
21321491,0.7813,-0.1269,0.5835,0.1816,0.1574,-1.0234,-14.1624,0
21321991,0.7745,-0.0262,0.5832,0.2434,-1.2115,3.753,-5.1956,0
21322491,0.779,0.0101,0.5344,0.3279,-3.1024,0.3533,-7.6884,0
21322991,0.7835,0.0382,0.5005,0.3663,-3.1111,0.4194,0.9471,0
21323491,0.808,0.0012,0.4532,0.3765,-3.2998,0.7101,4.7684,0
21323991,0.8404,-0.1424,0.3739,0.3656,-1.5615,-0.0274,2.2724,0
21324492,0.8455,-0.3295,0.2898,0.3041,-0.0056,-2.1061,1.5385,0
21324992,0.8068,-0.5033,0.1886,0.2453,8.0863,-7.7567,3.9528,0
21325492,0.821,-0.5254,0.1453,0.1698,1.31,0.1849,4.5658,0
21325992,0.8058,-0.5676,0.1011,0.135,3.9221,-3.8016,5.1106,0
21326492,0.8398,-0.5284,0.0745,0.0998,-1.1201,0.8123,-0.7996,0
21326992,0.8024,-0.5875,0.0626,0.084,6.1618,-10.0507,19.0856,0
21327492,0.8865,-0.4511,0.0728,0.0732,-3.5804,10.7255,-4.5167,0
21327992,0.8224,-0.5598,0.0771,0.0663,2.9016,-7.9561,4.6016,0
21328492,0.8501,-0.5155,0.0774,0.075,0.1297,1.9992,-2.3346,0
21328992,0.8485,-0.5176,0.0794,0.0762,1.094,-0.3103,2,0
21329492,0.8443,-0.5198,0.0951,0.0891,2.4995,-1.0486,6.6945,0
21329992,0.8416,-0.5021,0.1386,0.1426,3.7009,-1.0771,8.9472,0
21330492,0.8384,-0.4572,0.2027,0.2166,2.4648,1.0825,4.5743,0
21330992,0.8262,-0.3984,0.272,0.291,2.9134,-1.6983,1.4112,0
21331492,0.819,-0.3013,0.3492,0.3414,1.5446,-2.8593,0.7194,0
21331992,0.8063,-0.1668,0.4415,0.3564,-2.5103,-3.2793,-0.1106,0
21332492,0.7879,-0.0673,0.5113,0.3365,-1.5526,-0.1517,2.1787,0
21332992,0.7866,-0.0613,0.5206,0.3262,-0.8699,-1.7766,-2.7772,0
21333492,0.7978,-0.043,0.5391,0.2665,-1.1879,-0.1148,-5.4922,0
21333992,0.8058,-0.0464,0.5554,0.2001,-1.3394,0.3049,-7.9759,0
21334492,0.8013,-0.0644,0.5764,0.1463,-0.666,1.8195,-5.4083,0
21334992,0.7943,-0.1158,0.5859,0.1113,-1.3202,0.6826,-3.4297,0
21335492,0.7949,-0.1473,0.5859,0.0551,0.4201,3.0028,-2.8302,0
21335992,0.7835,-0.2166,0.5823,0.0148,-0.7467,-0.1627,-4.3369,0
21336492,0.7748,-0.2726,0.5703,-0.011,1.7274,-0.7299,-2.2228,0
21336992,0.7695,-0.2905,0.5681,-0.0251,0.3621,-3.7645,0.5273,0
21337492,0.7804,-0.2549,0.5689,-0.0483,0.9142,0.219,-0.314,0
21337992,0.7806,-0.2512,0.5698,-0.0544,0.7288,-0.4415,0.1304,0
21338492,0.7755,-0.26,0.5731,-0.0498,-0.6307,-1.5726,0.127,0
21338992,0.7779,-0.2512,0.5753,-0.0293,-0.3836,-1.7094,-0.8513,0
21339492,0.7846,-0.2244,0.578,-0.0022,-0.4488,-0.3186,-2.7899,0
21339992,0.7877,-0.2239,0.5694,0.0725,0.2942,-1.7787,-5.4214,0
21340492,0.795,-0.1809,0.5609,0.144,0.1597,-0.7843,-8.1819,0
21340992,0.7939,-0.1496,0.5429,0.2294,0.0044,0.1165,-9.3267,0
21341492,0.7841,-0.1174,0.529,0.3025,-0.9706,0.0407,-5.4341,0
21341992,0.7816,-0.1032,0.504,0.3528,-0.2758,-0.4348,-0.6461,0
21342492,0.7879,-0.0997,0.4921,0.3565,-3.0765,0.0003,4.3914,0
21342992,0.8107,-0.1722,0.4387,0.3473,-5.3575,2.2875,2.9583,0
21343492,0.8136,-0.3501,0.3341,0.3221,0.8917,-0.3333,-1.1275,0
21343992,0.7708,-0.5257,0.2425,0.266,9.0007,-10.1715,1.5873,0
21344492,0.8308,-0.489,0.2026,0.1721,-0.2782,3.0485,-0.9382,0
21344992,0.8024,-0.5738,0.1224,0.1094,5.045,-4.8795,3.7348,0
21345492,0.783,-0.61,0.091,0.0813,10.7961,-41.6922,42.9129,0
21345992,0.9179,-0.3757,0.114,0.057,-4.7573,22.3245,-2.3468,0
21346492,0.7408,-0.6615,0.0849,0.08,4.6786,-19.1,13.7272,0
21346992,0.8482,-0.5151,0.0863,0.0876,0.1346,5.2007,-6.3719,0
21347492,0.8317,-0.5424,0.0766,0.0907,3.203,-3.0899,-0.5841,0
21347992,0.8417,-0.5267,0.0712,0.0953,1.6283,0.3562,-1.0336,0
21348492,0.8343,-0.5388,0.0743,0.0903,0.1324,-0.5918,0.7646,0
21348992,0.8271,-0.5479,0.0856,0.0919,-0.374,-0.0997,3.8296,0
21349492,0.8103,-0.56,0.1135,0.1301,4.42,-4.3029,14.3325,0
21349992,0.8326,-0.4811,0.1778,0.2093,3.9179,0.9896,6.6601,0
21350492,0.8247,-0.4156,0.2535,0.288,2.6188,-0.6453,2.3465,0
21350992,0.8104,-0.3356,0.3368,0.3422,4.0179,-4.1739,-1.2836,0
21351492,0.803,-0.1959,0.4421,0.3483,-2.8236,-1.0602,-2.2824,0
21351992,0.7861,-0.1097,0.524,0.3089,-2.4803,0.5725,0.2991,0
21352492,0.7781,-0.1107,0.5492,0.2841,-0.4558,-2.0244,-1.9868,0
21352992,0.7931,-0.0936,0.5616,0.2164,-1.1531,-1.4783,-2.8325,0
21353492,0.8213,-0.0604,0.5567,0.1093,1.8016,2.2744,-4.4348,0
21353992,0.8221,-0.0751,0.5643,0.003,3.7146,0.9685,-8.1806,0
21354492,0.7875,-0.1458,0.5952,-0.0663,-0.4761,2.8819,-9.917,0
21354992,0.7245,-0.3275,0.6065,-0.0003,-4.8,-5.9723,-1.7497,0
21355492,0.704,-0.381,0.5982,0.0368,-2.4209,-2.2423,-0.2485,0
21355992,0.7137,-0.3885,0.5805,0.0524,-0.7052,-2.512,-1.2105,0
21356492,0.6168,0.0878,0.6543,-0.4286,2.5327,2.376,-1.2046,0
21356992,0.62,0.0542,0.6618,-0.4179,-2.6786,-0.2783,0.5939,0
21357492,0.6178,0.0925,0.6289,-0.4629,1.3788,-0.8343,-0.1694,0
21357992,0.6269,0.0798,0.6302,-0.4511,-1.4364,-0.4508,-0.4287,0
21358492,0.6398,0.0802,0.6254,-0.4395,-0.0037,-0.4869,-0.1816,0
21358992,0.6612,0.0606,0.6311,-0.4011,-2.5806,-0.7334,-1.3653,0
21359492,0.6953,0.0632,0.6185,-0.3606,-1.2696,-0.6678,-2.5808,0
21359992,0.7478,0.0667,0.5895,-0.298,-2.8874,-0.799,-8.129,0
21360492,0.8047,0.0845,0.5386,-0.2352,-0.2838,0.6937,-8.9287,0
21360992,0.854,0.0818,0.4858,-0.1671,-0.5817,-0.7131,-5.5868,0
21361492,0.8891,0.1145,0.4225,-0.134,0.8164,-1.7556,-5.9915,0
21361992,,,,,,,,
