SampleTimeFine,Quat_W,Quat_X,Quat_Y,Quat_Z,FreeAcc_X,FreeAcc_Y,FreeAcc_Z,Status
11554835,0.7015,-0.4087,0.4145,0.4111,0.0509,0.0139,0.0775,0
11555335,0.7026,-0.4084,0.4134,0.4107,-0.0134,-0.0171,-0.0463,0
11555835,0.703,-0.4079,0.4133,0.4106,-0.0782,-0.0328,-0.0362,0
11556335,0.7033,-0.4072,0.4136,0.4105,-0.0148,-0.0372,-0.0138,0
11556835,0.7039,-0.4062,0.414,0.41,-0.0426,0.0207,-0.0228,0
11557335,0.7045,-0.4052,0.4143,0.4097,-0.1459,0.0174,-0.0612,0
11557835,0.7048,-0.4043,0.4147,0.4097,-0.0651,-0.0723,-0.1018,0
11558335,0.7048,-0.4039,0.415,0.4096,-0.0296,-0.0501,-0.0262,0
11558835,0.705,-0.4034,0.4153,0.4096,0.0212,-0.1087,-0.006,0
11559335,0.7051,-0.4028,0.4155,0.4098,-0.0084,-0.1227,0.029,0
11559835,0.7053,-0.4021,0.4157,0.41,0.0056,-0.1143,-0.0049,0
11560335,0.7057,-0.4012,0.4162,0.4097,0.0018,-0.0968,-0.0511,0
11560835,0.7055,-0.4009,0.4163,0.4102,0.0277,-0.0646,-0.0169,0
11561335,0.7061,-0.3997,0.4171,0.4096,0.0344,0.0143,-0.0115,0
11561835,0.7059,-0.3996,0.4158,0.4113,-1.5886,0.8098,-0.1579,0
11562335,0.6974,-0.4106,0.4058,0.4247,-3.8181,0.725,-0.8643,0
11562835,0.6769,-0.4343,0.3846,0.453,-1.5199,0.8902,0.3473,0
11563335,0.6494,-0.4711,0.3461,0.4863,4.6794,-1.4928,1.995,0
11563835,0.6437,-0.5198,0.2902,0.4809,11.5133,-1.9217,0.2504,0
11564335,0.6469,-0.6024,0.2131,0.4163,10.9429,-3.7485,1.3724,0
11564835,0.6314,-0.709,0.1268,0.2876,6.2771,-4.6336,9.6682,0
11565335,0.6061,-0.7839,0.0571,0.1224,-5.4293,-0.6953,11.49,0
11565835,0.5772,-0.816,-0.0008,-0.0316,-11.5443,1.1453,4.9412,0
11566335,0.5565,-0.8139,-0.0429,-0.1612,-9.6295,0.2963,-0.5614,0
11566835,0.5531,-0.7853,-0.0737,-0.2683,-6.9498,-0.5174,-3.7719,0
11567335,0.5571,-0.7439,-0.1027,-0.3545,-2.8547,-0.804,-6.2545,0
11567835,0.5485,-0.7103,-0.1176,-0.4252,-0.9524,-0.035,-4.378,0
11568335,0.5534,-0.6701,-0.1315,-0.4769,4.8373,-0.0874,-9.5753,0
11568835,0.535,-0.6669,-0.1247,-0.5034,7.1471,4.854,-6.046,0
11569335,0.4869,-0.7024,-0.0924,-0.5109,2.2522,4.1637,-2.2305,0
11569835,0.4842,-0.7181,-0.0912,-0.4915,4.2042,2.9282,-3.9636,0
11570335,0.4935,-0.7357,-0.0944,-0.4542,1.4009,1.5924,-3.8637,0
11570835,0.5131,-0.7502,-0.0999,-0.4049,-1.6923,0.4784,-2.9836,0
11571335,0.5388,-0.7612,-0.1021,-0.3463,-1.5279,0.5285,-3.0393,0
11571835,0.5508,-0.7798,-0.0974,-0.2811,-3.273,-0.6154,-4.1296,0
11572335,0.5581,-0.8002,-0.0891,-0.2008,-4.156,0.5518,-0.0809,0
11572835,0.5889,-0.7988,-0.0548,-0.1101,-4.6991,-0.4884,1.2663,0
11573335,0.6445,-0.7646,0.0046,-0.0047,-4.8599,-2.1131,0.4903,0
11573835,0.6859,-0.7134,0.0831,0.1169,-7.1965,-2.4025,3.2889,0
11574335,0.6813,-0.6656,0.1617,0.2581,-3.6659,-4.1236,4.5858,0
11574835,0.6382,-0.6299,0.2147,0.3871,3.1817,-4.4827,6.5025,0
11575335,0.5856,-0.6022,0.2505,0.4814,11.1592,1.8962,2.2096,0
11575835,0.5664,-0.5698,0.2855,0.5225,7.8778,1.8119,2.0542,0
11576335,0.5797,-0.54,0.3048,0.5286,2.8624,-0.2382,0.7677,0
11576835,0.5955,-0.523,0.3272,0.5146,0.3394,-3.2377,-0.1337,0
11577335,0.6122,-0.4999,0.3622,0.494,-5.1612,0.2598,1.1143,0
11577835,0.6096,-0.5199,0.3442,0.4895,1.7437,-0.9846,0.0987,0
11578335,0.6104,-0.5371,0.3235,0.484,3.3504,1.8125,0.6225,0
11578835,0.6315,-0.5498,0.2979,0.4584,2.5147,-0.511,1.6426,0
11579335,0.646,-0.5899,0.242,0.4197,6.7585,-2.1422,2.27,0
11579835,0.6655,-0.636,0.1828,0.3453,4.2699,-3.0888,3.2257,0
11580335,0.6718,-0.6898,0.1178,0.243,0.1899,-3.0594,5.8875,0
11580835,0.6601,-0.738,0.055,0.1291,-4.1251,-1.7941,5.0535,0
11581335,0.6344,-0.7729,0.0013,0.0148,-5.6733,-0.692,3.0893,0
11581835,0.6133,-0.7835,-0.0355,-0.093,-6.1109,-0.4876,0.889,0
11582335,0.6054,-0.7717,-0.0606,-0.1851,-5.0012,-0.5455,-2.4525,0
11582835,0.5911,-0.7569,-0.0826,-0.2662,-2.5703,-0.2592,-3.7093,0
11583335,0.5776,-0.7385,-0.096,-0.3343,-1.052,-0.08,-3.7875,0
11583835,0.5711,-0.7153,-0.1047,-0.3889,0.2251,0.2297,-3.4919,0
11584335,0.5706,-0.6907,-0.1088,-0.4307,2.7356,0.3951,-5.0529,0
11584835,0.5499,-0.6911,-0.0979,-0.4588,4.2289,2.812,-4.3355,0
11585335,0.521,-0.711,-0.0811,-0.4652,3.0947,2.8776,-2.5997,0
11585835,0.5097,-0.729,-0.0772,-0.4504,3.4429,1.779,-3.2192,0
11586335,0.509,-0.746,-0.0748,-0.4229,1.0916,0.6677,-3.0638,0
11586836,0.5248,-0.7571,-0.0764,-0.3815,-0.3807,0.3054,-2.2793,0
11587336,0.5504,-0.7619,-0.078,-0.3325,-0.9202,-0.3502,-2.493,0
11587836,0.5722,-0.7689,-0.072,-0.2762,-1.814,-0.1701,-2.4019,0
11588336,0.5812,-0.785,-0.0575,-0.2068,-3.2425,0.509,-1.0716,0
11588836,0.5928,-0.7944,-0.0465,-0.1238,-5.4735,-0.1746,-1.5082,0
11589336,0.6112,-0.7907,-0.0287,-0.0173,-5.326,0.5215,1.5262,0
11589836,0.6392,-0.7623,0.0044,0.1017,-3.3584,-2.0416,3.1137,0
11590336,0.6594,-0.7154,0.0484,0.2258,-2.1257,-3.4547,5.7099,0
11590836,0.6703,-0.6506,0.1095,0.3398,0.7762,-4.0407,2.6849,0
11591336,0.6525,-0.5981,0.1707,0.4329,3.8744,-3.8588,2.154,0
11591836,0.6251,-0.5591,0.2213,0.4976,5.3794,-1.5288,1.0944,0
11592336,0.599,-0.5333,0.2617,0.5369,4.845,-0.834,0.2322,0
11592836,0.5883,-0.5112,0.2968,0.5519,3.9658,-0.8991,0.5551,0
11593336,0.5884,-0.4973,0.3251,0.5485,2.2614,-0.8232,-0.2296,0
11593836,0.5974,-0.4855,0.3478,0.5352,-4.222,1.1087,1.8883,0
11594336,0.5999,-0.4987,0.3372,0.527,1.2804,-1.3343,-0.4883,0
11594836,0.6086,-0.5084,0.3274,0.5137,1.6452,0.4256,0.191,0
11595336,0.6236,-0.5321,0.3043,0.4852,3.9222,-2.0953,0.8467,0
11595836,0.6376,-0.5844,0.2547,0.4325,8.4274,-2.9022,1.7405,0
11596336,0.6439,-0.6596,0.1903,0.3377,5.972,-4.316,5.0413,0
11596836,0.635,-0.7335,0.1245,0.2082,-0.9558,-3.2505,7.9059,0
11597336,0.6074,-0.7882,0.0647,0.0745,-6.4686,-1.1725,5.2767,0
11597836,0.5721,-0.8186,0.0198,-0.0469,-6.9491,0.0316,1.2942,0
11598336,0.5402,-0.8271,-0.0105,-0.1546,-6.032,1.04,-0.6014,0
11598836,0.5246,-0.8159,-0.032,-0.2407,-4.2127,1.0707,-2.9881,0
11599336,0.5164,-0.7959,-0.0535,-0.3115,-1.5045,0.702,-3.8466,0
11599836,0.5114,-0.7714,-0.0736,-0.3714,-1.7235,-0.2674,-1.894,0
11600336,0.516,-0.7394,-0.0937,-0.4222,-0.6303,-1.0672,-2.943,0
11600836,0.5306,-0.7013,-0.1112,-0.4629,2.5906,-0.9478,-4.5647,0
11601336,0.5391,-0.6785,-0.1215,-0.484,6.7983,3.0084,-6.6106,0
11601836,0.5213,-0.693,-0.1159,-0.4843,5.0676,3.0553,-5.0291,0
11602336,0.5096,-0.7165,-0.1174,-0.4617,2.739,1.766,-3.6149,0
11602836,0.5186,-0.7328,-0.1261,-0.4221,-0.6229,0.5849,-3.3297,0
11603336,0.5385,-0.7437,-0.1359,-0.372,-1.3346,0.0557,-2.3216,0
11603836,0.5571,-0.7565,-0.1347,-0.3149,-2.1856,-1.0328,-3.286,0
11604336,0.5635,-0.7798,-0.1234,-0.2432,-2.1533,0.1864,-1.6214,0
11604836,0.577,-0.7936,-0.1107,-0.1582,-4.9469,0.4297,0.7307,0
11605336,0.6139,-0.7821,-0.0891,-0.0589,-5.2605,-1.45,0.6436,0
11605836,0.6593,-0.7484,-0.0481,0.0547,-5.4906,-2.3589,1.3998,0
11606336,0.693,-0.6999,0.0131,0.1724,-2.7701,-3.72,3.3701,0
11606836,0.703,-0.6429,0.0873,0.2912,0.6453,-4.0236,3.5958,0
11607336,0.6831,-0.5992,0.15,0.3897,3.2097,-3.5108,3.991,0
11607836,0.6565,-0.5644,0.2039,0.4571,4.7898,-0.8573,0.5809,0
11608336,0.6271,-0.5476,0.2421,0.4982,4.4886,-1.3303,1.9698,0
11608836,0.6152,-0.5283,0.2778,0.515,3.1796,0.3931,0.1961,0
11609336,0.6102,-0.5095,0.3178,0.5167,-0.6213,-1.7743,0.5871,0
11609836,0.6057,-0.5056,0.333,0.5163,0.147,1.5932,1.3622,0
11610336,0.5969,-0.5292,0.3202,0.5111,2.519,-0.8169,0.2736,0
11610836,0.6087,-0.5335,0.3142,0.4961,-0.0604,2.1175,0.935,0
11611336,0.6248,-0.5381,0.2958,0.4823,-0.2806,-0.9547,1.3334,0
11611836,0.6378,-0.5626,0.2537,0.4608,5.886,-2.1891,1.2483,0
11612336,0.6513,-0.6146,0.1907,0.4022,9.4621,-2.9127,1.5544,0
11612836,0.6497,-0.6952,0.112,0.2865,4.8709,-4.7934,7.6131,0
11613336,0.6327,-0.7637,0.0817,0.0986,-4.5524,-1.3496,9.5208,0
11613836,0.5871,-0.8085,0.0159,-0.0371,-7.4806,1.4075,5.384,0
11614336,0.5498,-0.8184,-0.0328,-0.1641,-9.4092,2.0294,0.2548,0
11614836,0.5302,-0.8012,-0.0712,-0.268,-6.4521,0.9445,-4.4844,0
11615336,0.5154,-0.7772,-0.1022,-0.3463,-2.8009,-0.1761,-5.3131,0
11615836,0.5031,-0.7492,-0.1279,-0.4115,-0.5868,-0.7178,-4.2857,0
11616336,0.5011,-0.7125,-0.1485,-0.4681,0.0889,-1.0377,-4.0743,0
11616836,0.5081,-0.6753,-0.1615,-0.5096,5.3615,-2.362,-7.7825,0
11617336,0.4687,-0.6831,-0.1393,-0.5425,5.6737,2.4774,-3.8324,0
11617836,0.4272,-0.7048,-0.1108,-0.5554,0.9246,2.9919,-0.0749,0
11618336,0.4312,-0.7089,-0.1161,-0.546,5.3985,0.9149,-3.2807,0
11618836,0.4183,-0.7381,-0.1075,-0.5183,3.6174,1.7438,-4.3016,0
11619336,0.4324,-0.7589,-0.1152,-0.473,0.1772,1.3624,-2.4818,0
11619836,0.4727,-0.7648,-0.1372,-0.4157,-2.0568,1.2419,-2.5898,0
11620336,0.4983,-0.7781,-0.1459,-0.3535,-2.0173,-0.4636,-2.7241,0
11620836,0.5029,-0.805,-0.1403,-0.2817,-4.0249,-0.1799,-4.2922,0
11621336,0.5172,-0.822,-0.1285,-0.2009,-4.9937,-0.4973,-2.8436,0
11621836,0.563,-0.815,-0.0987,-0.0952,-4.4742,0.7586,1.6611,0
11622336,0.6325,-0.7729,-0.0437,0.0254,-2.6989,-0.8389,3.2651,0
11622836,0.6832,-0.7141,0.0277,0.1499,-3.8042,-3.0445,6.7389,0
11623336,0.7052,-0.6487,0.1075,0.2652,0.3291,-3.5163,3.8379,0
11623836,0.6956,-0.595,0.1831,0.3586,3.701,-3.8491,3.3961,0
11624336,0.6727,-0.558,0.2438,0.4202,5.7695,-2.9951,-0.3,0
11624836,0.6481,-0.5367,0.2956,0.4523,4.2577,-1.3278,0.7106,0
11625336,0.6388,-0.5158,0.3453,0.4545,0.6047,1.0577,1.454,0
11625836,0.6348,-0.5035,0.3791,0.4469,0.5115,-0.1884,1.4462,0
11626336,0.637,-0.4894,0.4003,0.4409,-0.9526,2.3759,2.2948,0
11626836,0.6423,-0.4975,0.3908,0.4327,3.1367,-0.3817,1.4525,0
11627336,0.655,-0.4988,0.3791,0.4225,1.7268,1.3188,0.7281,0
11627836,0.6797,-0.4991,0.3565,0.4022,-0.6594,-0.1423,1.1763,0
11628336,0.6918,-0.5314,0.3052,0.3818,4.324,-3.1535,0.6628,0
11628836,0.7008,-0.5849,0.2423,0.3287,5.4471,-3.2176,1.6159,0
11629336,0.6943,-0.6574,0.1688,0.2393,3.3285,-3.1299,5.847,0
11629836,0.6745,-0.7219,0.0933,0.1235,-2.4291,-1.3749,6.4986,0
11630336,0.6388,-0.7689,0.0258,0.0046,-6.0379,0.2433,5.1365,0
11630836,0.6112,-0.7838,-0.0208,-0.108,-7.144,0.4773,1.7606,0
11631336,0.6002,-0.7706,-0.0555,-0.2069,-5.9708,0.2794,-2.986,0
11631836,0.5832,-0.755,-0.0804,-0.2888,-2.2845,-0.7202,-5.2493,0
11632336,0.5476,-0.7466,-0.0872,-0.3676,-1.5475,-0.4967,-4.2586,0
11632836,0.5034,-0.7432,-0.0867,-0.4322,-1.4928,-0.5513,-0.7594,0
11633336,0.4669,-0.7293,-0.0853,-0.4928,0.6284,2.1217,-1.8067,0
11633836,0.4508,-0.7069,-0.087,-0.5381,2.8471,0.618,-4.7781,0
11634336,0.4335,-0.6995,-0.0808,-0.5624,6.4018,2.7877,-4.6931,0
11634836,0.4178,-0.706,-0.0685,-0.5677,1.4226,1.6469,-1.0862,0
11635336,0.4222,-0.7117,-0.0699,-0.5572,4.3903,0.6557,-4.0284,0
11635836,0.4129,-0.7368,-0.0587,-0.5321,3.3643,1.6424,-3.87,0
11636336,0.427,-0.7594,-0.0588,-0.4874,1.6308,0.9543,-2.7796,0
11636837,0.4622,-0.7698,-0.0644,-0.4355,-1.281,-1.6096,-4.3733,0
11637337,0.4833,-0.794,-0.0483,-0.3657,-3.1069,0.3919,-3.5138,0
11637837,0.479,-0.8282,-0.0296,-0.2894,-4.6897,0.4593,-1.9804,0
11638337,0.4823,-0.8528,-0.0071,-0.2,-4.7647,1.3395,0.6565,0
11638837,0.5172,-0.8499,0.0204,-0.0991,-6.6598,1.3089,1.2161,0
11639337,0.563,-0.8242,0.0593,0.0153,-3.2297,-0.3317,4.0384,0
11639837,0.6027,-0.7797,0.1065,0.132,-3.0667,-1.4549,5.773,0
11640337,0.6316,-0.717,0.1614,0.247,-0.0976,-2.0574,5.0567,0
11640837,0.6356,-0.6561,0.2124,0.3471,3.5501,-2.6341,3.5545,0
11641337,0.6287,-0.6028,0.2588,0.4177,4.4031,-1.8323,1.5739,0
11641837,0.618,-0.5658,0.2886,0.4632,4.6772,0.0305,0.3064,0
11642337,0.6157,-0.5398,0.3067,0.4853,3.2228,-0.6037,0.5831,0
11642837,0.6231,-0.5177,0.3299,0.4847,-0.1616,-1.3366,0.0152,0
11643337,0.6262,-0.5027,0.3481,0.4837,-0.8405,-0.7977,-0.4099,0
11643837,0.6227,-0.499,0.3621,0.4818,-0.9317,-0.1565,-0.0606,0
11644337,0.6193,-0.5059,0.3617,0.4792,2.073,0.6417,0.7739,0
11644837,0.6185,-0.5127,0.3613,0.4733,-0.6229,-0.1181,0.0053,0
11645337,0.6234,-0.5184,0.3496,0.4695,-1.1123,2.355,0.6134,0
11645837,0.6255,-0.5368,0.3198,0.4673,3.0859,-0.8899,1.429,0
11646337,0.6366,-0.5672,0.2766,0.4433,7.6641,-2.0779,0.5035,0
11646837,0.6464,-0.6255,0.2214,0.3766,8.8652,-4.3808,1.04,0
11647337,0.6427,-0.7058,0.1514,0.2568,5.2431,-3.7492,9.3173,0
11647837,0.6277,-0.7659,0.0867,0.109,-6.552,-1.6279,10.4325,0
11648337,0.6022,-0.7965,0.0442,-0.0323,-10.1487,-0.2582,3.7907,0
11648837,0.575,-0.8037,0.0167,-0.1525,-8.7811,1.1521,-0.4319,0
11649337,0.5576,-0.7909,-0.006,-0.252,-4.8048,1.5241,-4.199,0
11649837,0.5367,-0.7755,-0.0254,-0.3316,-3.3625,-0.0667,-4.9234,0
11650337,0.5307,-0.7438,-0.0454,-0.4038,0.4612,-0.3787,-5.3801,0
11650837,0.5175,-0.7165,-0.0498,-0.4652,2.3136,-0.409,-7.1178,0
11651337,0.4744,-0.7245,-0.0304,-0.4991,6.0153,3.8347,-5.2267,0
11651837,0.4357,-0.7431,-0.0055,-0.5079,0.3358,3.4786,-0.1838,0
11652337,0.4523,-0.7342,-0.0085,-0.5063,3.128,0.5324,-4.5352,0
11652837,0.4398,-0.754,0.0073,-0.4879,3.9214,1.0164,-3.4309,0
11653337,0.432,-0.7792,0.0159,-0.4538,1.0368,1.6506,-2.8984,0
11653837,0.4585,-0.7844,0.0045,-0.4177,-0.8632,1.094,-1.3005,0
11654337,0.4957,-0.7841,-0.0086,-0.3735,-1.7814,0.5215,-1.6531,0
11654837,0.5215,-0.7917,-0.0096,-0.318,0.1637,-0.3361,-2.3646,0
11655337,0.5384,-0.8051,-0.0005,-0.2488,-4.5993,1.4327,-0.3783,0
11655837,0.5691,-0.805,0.0148,-0.1671,-5.446,1.0313,-1.8795,0
11656337,0.615,-0.7836,0.0485,-0.0735,-4.9584,-0.4916,0.644,0
11656837,0.6706,-0.7341,0.1032,0.0292,-2.203,-1.0907,3.6188,0
11657337,0.706,-0.673,0.1751,0.1342,-4.0366,-3.6567,2.3326,0
11657837,0.7011,-0.6255,0.2403,0.2439,-0.8688,-2.676,4.5893,0
11658337,0.6687,-0.601,0.2825,0.3342,5.3533,-2.3851,3.3049,0
11658837,0.6393,-0.5833,0.3048,0.3977,6.239,0.5776,1.9829,0
11659337,0.6237,-0.5638,0.3286,0.4303,3.8713,-0.1593,1.971,0
11659837,0.6304,-0.5339,0.3508,0.4409,0.8214,-0.0789,-0.171,0
11660337,0.6346,-0.5128,0.3705,0.4439,-0.5616,-1.4531,-0.7289,0
11660837,0.6288,-0.5079,0.3859,0.4447,-0.2472,-1.1482,-0.7463,0
11661337,0.619,-0.5125,0.3957,0.4445,0.5607,0.8021,0.5814,0
11661837,0.6159,-0.5205,0.3947,0.4404,1.8337,0.7859,1.2587,0
11662337,0.5866,-0.5541,0.3464,0.4784,0.9327,1.2936,0.6519,0
11662837,0.6011,-0.5638,0.3173,0.4691,2.4357,1.1068,1.7005,0
11663337,0.6187,-0.5953,0.2584,0.4427,7.8844,-0.8453,3.2718,0
11663837,0.6427,-0.6409,0.1888,0.3748,7.1403,-2.7821,3.7901,0
11664337,0.6534,-0.7022,0.107,0.2618,1.6466,-4.121,7.109,0
11664837,0.6342,-0.7615,0.021,0.1321,-5.8428,-3.2129,5.4005,0
11665337,0.5854,-0.8093,-0.048,0.0073,-7.0378,-0.2882,3.3514,0
11665837,0.5464,-0.8259,-0.0837,-0.1112,-7.797,0.0224,-0.023,0
11666337,0.5271,-0.8149,-0.1102,-0.2144,-5.6085,1.5695,-2.359,0
