SampleTimeFine,Quat_W,Quat_X,Quat_Y,Quat_Z,FreeAcc_X,FreeAcc_Y,FreeAcc_Z,Status
11535273,0.531,0.4266,0.4758,-0.5564,-0.0155,-0.1039,-0.0489,0
11535773,0.5325,0.4275,0.4742,-0.5558,-0.1208,0.1634,-0.073,0
11536273,0.5338,0.4299,0.4722,-0.5543,-0.907,-0.2021,0.2742,0
11536773,0.5321,0.4297,0.4691,-0.5587,-2.0562,0.2009,-0.2813,0
11537273,0.5268,0.4423,0.4515,-0.5683,3.5193,0.3203,1.0652,0
11537773,0.5302,0.4815,0.4207,-0.5568,5.3639,2.6885,-0.1672,0
11538273,0.542,0.565,0.3489,-0.515,11.088,-0.8619,-3.0025,0
11538773,0.5698,0.6698,0.2415,-0.4103,7.9988,-0.5798,7.4635,0
11539273,0.5901,0.752,0.1173,-0.2694,-1.2227,-2.6098,12.5426,0
11539773,0.6078,0.7848,0.0087,-0.1206,-10.3275,0.5494,7.4938,0
11540273,0.6166,0.7834,-0.0767,0.0126,-10.9996,1.7439,2.2954,0
11540773,0.6253,0.7598,-0.1319,0.1196,-9.0563,2.2556,-3.0457,0
11541273,0.6406,0.7217,-0.1694,0.2002,-5.2801,1.575,-4.4586,0
11541773,0.6466,0.6832,-0.1997,0.2745,-1.7685,0.9414,-6.8555,0
11542273,0.63,0.6631,-0.2154,0.342,-0.0672,-1.0507,-6.5785,0
11542773,0.6104,0.6492,-0.22,0.397,3.5506,-3.8023,-6.3275,0
11543273,0.5887,0.6517,-0.2148,0.4273,4.8075,-4.7203,-6.2747,0
11543773,0.5834,0.6575,-0.2115,0.4274,3.5879,-4.0218,-5.0522,0
11544273,0.5887,0.6691,-0.2076,0.4033,2.9456,-2.1571,-4.7321,0
11544773,0.5912,0.6919,-0.1988,0.3637,0.2309,-1.5322,-3.8127,0
11545273,0.5993,0.7162,-0.1891,0.3035,-1.3791,-0.6572,-2.1206,0
11545773,0.6119,0.7353,-0.1792,0.2299,-2.8664,-1.4031,-2.1553,0
11546273,0.6192,0.7496,-0.1788,0.1506,-4.5976,0.2905,-2.1415,0
11546773,0.6217,0.7605,-0.1749,0.0673,-4.7027,-0.4962,-0.3595,0
11547274,0.6238,0.7639,-0.1608,-0.0369,-7.3397,0.7277,1.1129,0
11547774,0.6412,0.7422,-0.1252,-0.1492,-4.6389,2.1728,2.4905,0
11548274,0.6816,0.6792,-0.0411,-0.269,-0.9124,2.2363,4.1581,0
11548774,0.6896,0.6146,0.0796,-0.3747,0.8839,3.548,2.1412,0
11549274,0.6644,0.5691,0.1821,-0.4489,3.5149,2.7863,1.6443,0
11549774,0.6253,0.546,0.2593,-0.4936,6.9461,-1.6398,2.4224,0
11550274,0.6125,0.5164,0.3159,-0.5083,3.529,-1.1552,2.6913,0
11550774,0.6045,0.4983,0.3571,-0.5088,0.549,-2.5035,1.2548,0
11551274,0.5954,0.5011,0.364,-0.5117,-0.0237,-1.6009,0.894,0
11551774,0.5973,0.502,0.3641,-0.5086,-2.4548,-1.63,0.854,0
11552274,0.5976,0.5094,0.3493,-0.5112,-1.4113,-1.988,0.2936,0
11552774,0.6051,0.5102,0.3333,-0.5124,0.4622,-1.0727,0.8589,0
11553274,0.6139,0.5282,0.2992,-0.5045,4.9874,0.041,-0.2327,0
11553774,0.641,0.5648,0.2396,-0.4611,6.3777,0.9499,1.2185,0
11554274,0.665,0.6211,0.1541,-0.3851,3.5414,0.934,4.9291,0
11554774,0.6743,0.6773,0.0619,-0.2878,-1.9885,1.2797,6.3336,0
11555274,0.6728,0.7169,-0.0174,-0.182,-4.8336,1.1507,4.1946,0
11555774,0.6689,0.7354,-0.0776,-0.0754,-5.9739,0.5657,2.0256,0
11556274,0.6694,0.7326,-0.1209,0.023,-6.5825,0.2765,-1.0523,0
11556774,0.6718,0.7158,-0.1529,0.1134,-4.6332,1.507,-2.5986,0
11557274,0.67,0.6942,-0.1705,0.2002,-2.8481,1.232,-4.2663,0
11557774,0.6625,0.6715,-0.1825,0.2774,-1.3759,-0.475,-3.8222,0
11558274,0.6462,0.6564,-0.1865,0.3416,0.81,-2.0532,-3.4385,0
11558774,0.6259,0.6495,-0.1854,0.3899,2.3473,-4.2871,-4.7301,0
11559274,0.6058,0.6535,-0.1809,0.4162,1.8958,-3.3653,-3.2326,0
11559774,0.5978,0.6588,-0.1798,0.4198,2.2067,-2.8022,-3.4635,0
11560274,0.5933,0.6734,-0.1762,0.4044,2.1306,-1.9005,-3.6336,0
11560774,0.5894,0.6978,-0.1665,0.3714,0.8077,-1.8284,-4.4705,0
11561274,0.5951,0.7197,-0.1579,0.3208,-1.0807,-1.3691,-2.0524,0
11561774,0.6125,0.7342,-0.1475,0.2531,-3.3564,-1.2759,-3.9633,0
11562274,0.6202,0.7523,-0.131,0.1793,-2.9786,0.278,-3.4241,0
11562774,0.6213,0.7694,-0.115,0.0935,-5.7505,-1.3824,0.579,0
11563274,0.6252,0.7752,-0.0905,-0.0025,-5.0727,-0.6489,0.5729,0
11563774,0.6408,0.7593,-0.0506,-0.101,-3.8754,1.2446,2.0526,0
11564274,0.663,0.7207,0.0112,-0.2025,-0.106,0.0938,5.2008,0
11564774,0.6746,0.6717,0.0918,-0.2921,-2.9484,4.3753,2.4983,0
11565274,0.655,0.6298,0.1793,-0.377,2.0445,1.2013,1.5392,0
11565774,0.6153,0.6056,0.2473,-0.4399,3.576,0.3182,2.3082,0
11566274,0.5853,0.5803,0.2958,-0.4828,4.1002,-2.985,0.0768,0
11566774,0.5816,0.5538,0.3357,-0.4923,1.7587,-1.671,2.4228,0
11567274,0.5772,0.5414,0.3639,-0.4912,0.9388,-0.638,0.6515,0
11567774,0.5753,0.537,0.3776,-0.488,-2.7618,-3.5265,1.2921,0
11568274,0.5696,0.5545,0.3644,-0.4851,-1.2374,-1.0007,-0.9008,0
11568774,0.5679,0.5594,0.3568,-0.4871,-1.386,-2.2776,0.0358,0
11569274,0.5695,0.5723,0.3391,-0.4828,0.9752,0.4297,0.3302,0
11569774,0.573,0.6081,0.295,-0.4635,7.0729,-0.972,0.2886,0
11570274,0.5916,0.6599,0.2248,-0.4049,6.4806,-0.5071,3.6741,0
11570774,0.605,0.7201,0.1383,-0.3103,2.3913,-0.2525,7.3811,0
11571274,0.6114,0.7658,0.0517,-0.1927,-4.5989,0.6701,6.8132,0
11571774,0.6048,0.7926,-0.0216,-0.0745,-7.6451,-0.7508,4.4503,0
11572274,0.6107,0.7873,-0.0774,0.0354,-7.7674,-0.1967,0.014,0
11572774,0.6207,0.7645,-0.1176,0.1279,-5.8524,1.1106,-4.3655,0
11573274,0.6158,0.7471,-0.1505,0.2,-3.0244,-0.1087,-3.715,0
11573774,0.5955,0.7333,-0.1751,0.2776,-2.9265,-0.1797,-3.0673,0
11574274,0.5736,0.7184,-0.1905,0.3443,-2.7343,-1.7651,-1.7356,0
11574774,0.5694,0.6916,-0.2088,0.3923,0.5138,-1.8668,-3.3026,0
11575274,0.5639,0.6718,-0.2238,0.4249,3.6673,-2.147,-6.2307,0
11575774,0.5446,0.6768,-0.2197,0.444,4.2529,-3.5091,-5.4378,0
11576274,0.5353,0.6914,-0.2107,0.4371,3.6117,-3.177,-4.8002,0
11576774,0.5424,0.707,-0.2053,0.4047,0.72,-2.2242,-3.3277,0
11577274,0.5609,0.7182,-0.2037,0.3578,-2.6281,-1.0348,-3.1749,0
11577774,0.575,0.7374,-0.1891,0.2997,-0.3653,-0.553,-4.446,0
11578274,0.5706,0.7707,-0.1648,0.2309,-4.0986,-1.0011,-2.5157,0
11578774,0.5711,0.7946,-0.143,0.1482,-5.9233,-1.0384,-3.1032,0
11579274,0.5654,0.8148,-0.1191,0.0468,-6.9251,-0.5955,-0.3417,0
11579774,0.5684,0.8155,-0.0869,-0.0663,-4.6738,-0.7379,3.4634,0
11580274,0.5872,0.7875,-0.0314,-0.1845,-4.8006,-0.7286,7.6083,0
11580774,0.6127,0.732,0.0435,-0.2949,-0.8514,1.8383,4.7361,0
11581274,0.6197,0.6695,0.1352,-0.3867,1.9519,0.7557,5.0971,0
11581774,0.5983,0.6226,0.2097,-0.4588,4.3488,0.4288,0.1395,0
11582274,0.5906,0.5824,0.263,-0.4928,5.2523,-3.4947,-0.2862,0
11582774,0.5963,0.552,0.3008,-0.4992,1.415,-1.0226,1.0996,0
11583274,0.5948,0.5425,0.3231,-0.4975,0.6957,-0.9388,0.8808,0
11583774,0.5936,0.5395,0.3414,-0.4899,-1.0756,-1.3591,-0.2182,0
11584274,0.5942,0.5386,0.3489,-0.4849,-3.7543,-2.8805,-0.2282,0
11584774,0.5931,0.5442,0.3397,-0.4865,-2.5617,-1.6635,-0.4465,0
11585274,0.5934,0.5479,0.3289,-0.4894,-1.6569,-0.7128,-1.5884,0
11585774,0.5903,0.5734,0.306,-0.4787,3.9127,1.1925,2.0906,0
11586274,0.5853,0.6244,0.2523,-0.4516,8.9713,-1.945,-1.5227,0
11586774,0.593,0.6986,0.1579,-0.3679,7.3402,-0.271,6.6552,0
11587274,0.585,0.7708,0.0508,-0.2472,0.3367,-0.4966,9.6437,0
11587774,0.5628,0.8185,-0.0421,-0.1073,-8.9262,-1.5602,9.048,0
11588274,0.5553,0.824,-0.1098,0.0256,-12.0421,-1.8947,2.3275,0
11588774,0.5628,0.7997,-0.1613,0.133,-9.4823,-0.5359,-4.2001,0
11589274,0.5755,0.7617,-0.2061,0.215,-3.9661,-0.0115,-5.7881,0
11589774,0.5813,0.7229,-0.2448,0.2821,-2.5597,0.2526,-5.4131,0
11590274,0.5822,0.6857,-0.2745,0.3399,-0.8278,0.8857,-4.528,0
11590774,0.5778,0.6547,-0.2901,0.3916,1.1019,-1.1777,-3.7531,0
11591274,0.5607,0.6426,-0.2887,0.4351,4.5874,-4.0858,-5.7768,0
11591774,0.5465,0.6447,-0.2797,0.4555,1.43,-4.5983,-2.7566,0
11592274,0.5588,0.6396,-0.2855,0.444,2.8832,-2.3155,-2.6604,0
11592774,0.5586,0.6546,-0.2802,0.4254,2.5731,-2.1403,-3.9556,0
11593274,0.5527,0.6819,-0.2671,0.3978,0.2962,-2.4266,-2.1809,0
11593774,0.5631,0.702,-0.2583,0.3513,-1.5783,-0.9869,-3.7,0
11594274,0.5829,0.7171,-0.2545,0.2852,-1.9291,-0.5086,-4.3556,0
11594774,0.5788,0.7488,-0.2359,0.2204,-3.8799,-0.7179,-4.0586,0
11595274,0.5655,0.7839,-0.2165,0.1372,-6.0836,-1.8718,-2.7943,0
11595774,0.5554,0.8086,-0.1908,0.036,-7.4119,-0.319,-0.945,0
11596274,0.5652,0.8074,-0.1502,-0.078,-6.69,-0.5784,4.5016,0
11596774,0.6052,0.7665,-0.0721,-0.2024,-3.7262,0.3435,6.1023,0
11597275,0.6329,0.7081,0.0246,-0.3121,-0.7597,2.5033,4.3527,0
11597775,0.625,0.659,0.116,-0.4021,1.6507,0.3195,4.0492,0
11598275,0.6027,0.622,0.1934,-0.461,7.389,-2.5482,0.6639,0
11598775,0.6102,0.5815,0.2586,-0.4718,5.7279,-2.1049,1.4881,0
11599275,0.6148,0.5472,0.3252,-0.4656,-0.192,0.6891,0.0532,0
11599775,0.6061,0.5398,0.3531,-0.4654,-1.8123,-2.4694,-1.0886,0
11600275,0.6081,0.5263,0.378,-0.4585,-7.3104,-2.962,-0.9258,0
11600775,0.6034,0.5422,0.3633,-0.4582,0.5042,-1.4018,-0.15,0
11601275,0.5959,0.5502,0.3539,-0.4659,-1.613,-2.5878,0.3463,0
11601775,0.5957,0.5618,0.337,-0.4648,-0.6719,0.2078,0.5901,0
11602275,0.5873,0.598,0.2929,-0.4599,4.5892,-1.9897,0.6285,0
11602775,0.6046,0.6387,0.2204,-0.4219,4.8921,-2.2509,3.6235,0
11603275,0.626,0.6807,0.1362,-0.3552,2.6672,-1.715,5.641,0
11603775,0.6468,0.7144,0.0443,-0.2633,-1.8123,-0.1902,5.9972,0
11604275,0.6569,0.7358,-0.0442,-0.1586,-6.0364,0.416,5.0347,0
11604775,0.6679,0.7332,-0.1161,-0.0543,-7.7925,0.4918,1.8824,0
11605275,0.6805,0.7109,-0.1736,0.0363,-6.4406,0.9695,-2.2084,0
11605775,0.6887,0.6818,-0.2197,0.1121,-4.4859,0.771,-4.4786,0
11606275,0.6868,0.6585,-0.2526,0.1754,-0.6331,0.1867,-5.1814,0
11606775,0.6731,0.6416,-0.2739,0.2455,-1.7806,0.4998,-2.7872,0
11607275,0.655,0.6239,-0.284,0.3179,-1.7673,-0.6915,-3.0547,0
11607775,0.6301,0.6132,-0.2817,0.3841,-0.1157,-3.615,-2.079,0
11608275,0.6039,0.6099,-0.2774,0.4317,2.7794,-4.61,-3.831,0
11608775,0.5853,0.6115,-0.2738,0.4566,1.1737,-3.9974,-2.5463,0
11609275,0.5842,0.6114,-0.2773,0.4561,2.9884,-2.7516,-3.6232,0
11609775,0.5794,0.6273,-0.2726,0.4432,2.7966,-2.9786,-3.8699,0
11610275,0.5783,0.6518,-0.2634,0.4139,0.6447,-2.37,-3.8686,0
11610775,0.5876,0.6737,-0.2517,0.3708,-0.6261,-1.1879,-3.0387,0
11611275,0.5993,0.7021,-0.2287,0.3091,-0.25,-0.9328,-5.7203,0
11611775,0.5837,0.7473,-0.199,0.2475,-4.9553,-0.4035,-3.9523,0
11612275,0.573,0.7844,-0.1699,0.166,-5.7549,-0.711,-2.8683,0
11612775,0.5601,0.8138,-0.1416,0.0637,-6.661,-1.3955,0.2599,0
11613275,0.5551,0.8247,-0.097,-0.0482,-5.3564,-0.3887,4.9863,0
11613775,0.5783,0.8,-0.0265,-0.1575,-5.5697,0.5267,5.893,0
11614275,0.6011,0.7532,0.0588,-0.2607,0.8613,-0.2636,4.5083,0
11614775,0.5996,0.708,0.1471,-0.3428,2.2886,-0.1758,3.4185,0
11615275,0.5824,0.6738,0.2064,-0.4052,2.3138,-0.7483,1.9282,0
11615775,0.5596,0.6489,0.2546,-0.4482,2.6536,-1.2666,0.6933,0
11616275,0.5498,0.6266,0.2892,-0.4706,1.9732,-2.7646,0.0168,0
11616775,0.554,0.6075,0.3171,-0.4728,0.4805,-1.1223,0.9804,0
11617275,0.5514,0.6019,0.3346,-0.4708,-0.3556,-1.6241,0.2903,0
11617775,0.5496,0.6027,0.3451,-0.4644,-0.9487,-1.1462,0.0552,0
11618275,0.5465,0.6043,0.3492,-0.4629,-3.0357,-2.8571,-0.3168,0
11618775,0.5498,0.6021,0.3485,-0.4624,-0.8735,-1.7357,0.4035,0
11619275,0.5523,0.5981,0.3442,-0.4677,-4.5607,-2.602,-0.9497,0
11619775,0.5545,0.597,0.3312,-0.4758,-0.1641,-1.2894,0.8684,0
11620275,0.5522,0.6153,0.3037,-0.4736,5.5143,-0.5583,2.2962,0
11620775,0.5678,0.6408,0.2618,-0.4456,7.7452,-1.8497,-0.2569,0
11621275,0.6015,0.68,0.1888,-0.3744,5.4001,-0.609,4.5853,0
11621775,0.6173,0.7303,0.097,-0.276,-0.2818,-0.1743,7.9735,0
11622275,0.6215,0.7677,0.0053,-0.1561,-7.0677,0.4657,7.3646,0
11622775,0.6211,0.7802,-0.0665,-0.0336,-10.1145,0.2312,3.3635,0
11623275,0.6275,0.7663,-0.1162,0.0741,-8.135,0.6881,-2.5514,0
11623775,0.6312,0.7417,-0.1564,0.1646,-4.7886,-0.0714,-5.1512,0
11624275,0.6302,0.714,-0.1866,0.2412,-1.5423,-0.553,-5.5033,0
11624775,0.6254,0.6875,-0.2082,0.3048,-0.0874,-0.6875,-4.478,0
11625275,0.6047,0.6751,-0.2168,0.3627,0.6931,-2.1257,-3.7335,0
11625775,0.5669,0.6806,-0.2072,0.4154,2.4132,-5.3151,-5.2517,0
11626275,0.557,0.6796,-0.2056,0.4308,2.1492,-3.9653,-4.6535,0
11626775,0.57,0.6729,-0.2114,0.4214,2.6276,-1.625,-3.9159,0
11627275,0.5598,0.6939,-0.2009,0.406,1.4092,-2.5117,-4.4787,0
11627775,0.5515,0.7201,-0.1914,0.3751,-0.5173,-3.0833,-2.8027,0
11628275,0.5702,0.7313,-0.1887,0.3232,-2.0427,-1.9932,-3.3663,0
11628775,0.5979,0.7359,-0.1859,0.2577,-0.5287,-1.0164,-2.7706,0
11629275,0.6076,0.7548,-0.1692,0.1804,-3.994,-0.3693,-3.5817,0
11629775,0.5965,0.7834,-0.1463,0.0954,-6.3137,-0.1542,-2.0472,0
11630275,0.5864,0.8016,-0.1164,-0.0072,-7.0315,0.9802,-1.1811,0
11630775,0.5839,0.8006,-0.0681,-0.1163,-4.2034,0.9557,2.7331,0
11631275,0.5878,0.7769,0.0013,-0.2255,-0.4005,-0.9262,7.5704,0
11631775,0.5885,0.7383,0.0811,-0.3193,-0.8863,1.0996,4.8264,0
11632275,0.575,0.6978,0.1636,-0.3947,3.2876,-1.6797,2.9066,0
11632775,0.5557,0.6641,0.2297,-0.4443,3.4427,-1.982,1.4786,0
11633275,0.5511,0.6321,0.2705,-0.4728,4.0798,-2.459,0.5734,0
11633775,0.5614,0.6017,0.309,-0.4768,0.6636,-1.2244,0.1109,0
11634275,0.5606,0.5908,0.331,-0.4766,0.4198,-0.4587,0.522,0
11634775,0.5587,0.5828,0.3527,-0.4731,-0.2449,-1.2416,-0.2199,0
11635275,0.5548,0.5806,0.3679,-0.4687,-1.6876,-1.3273,-0.6244,0
11635775,0.5518,0.5785,0.3732,-0.4708,-2.6362,-3.0476,-0.293,0
11636275,0.5502,0.5797,0.3687,-0.4746,-1.0251,-2.1722,0.9122,0
11636775,0.5504,0.5827,0.3554,-0.4808,-0.7991,-2.6721,0.4419,0
11637275,0.5544,0.596,0.3256,-0.481,3.7471,-1.4001,1.4866,0
11637775,0.5713,0.6259,0.2677,-0.4585,8.7619,-2.2026,0.5662,0
11638275,0.6145,0.6627,0.1859,-0.3856,5.088,0.0485,5.8018,0
11638775,0.6461,0.7029,0.0866,-0.2846,-1.1675,0.9098,7.5442,0
11639275,0.657,0.7372,-0.0022,-0.1578,-6.386,2.0227,5.2029,0
11639775,0.6471,0.7566,-0.0835,-0.043,-8.1954,-0.1563,3.3529,0
11640275,0.647,0.7463,-0.1438,0.0615,-6.9119,-0.1195,-2.2793,0
11640775,0.6364,0.7319,-0.1881,0.1544,-5.5208,0.2088,-3.7135,0
11641275,0.6389,0.6983,-0.2249,0.2317,-2.3397,-0.4997,-4.6664,0
11641775,0.6306,0.67,-0.2512,0.3004,-0.5427,-0.4684,-4.9535,0
