SampleTimeFine,Quat_W,Quat_X,Quat_Y,Quat_Z,FreeAcc_X,FreeAcc_Y,FreeAcc_Z,Status
5924151,0.9697,0.1165,0.175,-0.1242,-0.0447,-0.0401,0.1188,0
5924651,0.9695,0.1161,0.1755,-0.1254,0.0092,-0.0119,0.121,0
5925151,0.9694,0.1163,0.1755,-0.1262,0.0074,0.014,0.0524,0
5925651,0.9693,0.1167,0.1754,-0.1268,-0.0276,-0.0197,0.1563,0
5926151,0.9692,0.1169,0.1752,-0.1275,-0.0261,-0.0655,0.1199,0
5926651,0.9692,0.1171,0.1751,-0.1279,-0.0174,-0.0609,0.1397,0
5927151,0.9692,0.1172,0.1749,-0.128,-0.0228,-0.0626,0.1135,0
5927651,0.9691,0.1174,0.1749,-0.1282,-0.0282,-0.1223,0.1383,0
5928151,0.969,0.1179,0.175,-0.1282,-0.0769,-0.2261,0.1659,0
5928651,0.9688,0.1193,0.1754,-0.128,-0.0315,-0.261,0.0917,0
5929151,0.9683,0.1224,0.1763,-0.1275,-0.228,0.0375,0.2232,0
5929651,0.9685,0.1245,0.1743,-0.1268,0.0305,-0.2108,0.3413,0
5930151,0.9695,0.1274,0.1675,-0.1257,-0.2403,-0.2304,0.2623,0
5930651,0.9708,0.1343,0.1591,-0.1193,-0.4817,-0.8481,0.4966,0
5931151,0.9718,0.149,0.1457,-0.1107,-0.5706,-0.7618,0.6693,0
5931651,0.9719,0.1708,0.1271,-0.1003,-0.3935,-0.2014,0.6282,0
5932151,0.9713,0.1956,0.103,-0.0881,-0.3171,-0.0063,0.2538,0
5932651,0.969,0.2224,0.077,-0.0757,-0.149,0.2419,-0.086,0
5933151,0.9651,0.249,0.0508,-0.063,-0.0532,0.1907,-0.3843,0
5933651,0.9603,0.2736,0.0259,-0.0483,0.0302,0.4143,-0.1505,0
5934151,0.9547,0.2957,0.001,-0.0333,0.0896,-0.1963,-0.3505,0
5934651,0.9478,0.3173,-0.0225,-0.0202,0.0626,0.3309,0.0375,0
5935151,0.9422,0.3322,-0.044,-0.0072,-0.2137,0.0975,0.2873,0
5935651,0.9379,0.3405,-0.0666,0.0051,0.2668,-0.1213,-0.1771,0
5936151,0.9338,0.3474,-0.0842,0.0144,0.2906,-0.0619,-0.3464,0
5936651,0.9305,0.3532,-0.0948,0.02,0.6156,0.038,-0.6772,0
5937151,0.9292,0.356,-0.097,0.0211,0.0656,-0.0695,-0.4399,0
5937651,0.9294,0.357,-0.092,0.0174,0.5682,0.5776,-0.3864,0
5938151,0.9314,0.355,-0.0802,0.0097,0.1632,-0.2145,-0.2846,0
5938651,0.9336,0.3524,-0.0657,-0.003,0.1191,0.1176,0.2965,0
5939151,0.9376,0.3435,-0.051,-0.0173,0.0115,-0.4681,0.2343,0
5939651,0.9412,0.3344,-0.0352,-0.0334,-0.0626,0.0369,-0.3449,0
5940151,0.9452,0.3224,-0.017,-0.0495,-0.2937,-0.3336,0.0571,0
5940651,0.9484,0.3097,0.0036,-0.0688,0.2703,-0.0142,-0.0808,0
5941151,0.9505,0.2973,0.0289,-0.0861,-0.1934,0.2618,0.0075,0
5941651,0.9532,0.2793,0.053,-0.1033,0.3576,-0.2845,0.0779,0
5942151,0.9541,0.2616,0.0804,-0.1217,-1.3296,-0.7233,0.8686,0
5942651,0.9535,0.2468,0.1007,-0.1409,0.38,-0.3965,0.4648,0
5943151,0.9517,0.2335,0.1208,-0.1586,-0.8157,0.2148,0.5082,0
5943651,0.9507,0.219,0.1346,-0.1735,0.0805,-0.3312,0.4379,0
5944151,0.9493,0.2111,0.144,-0.1834,-0.4295,-0.3038,0.7737,0
5944651,0.9494,0.2087,0.1442,-0.1853,-0.3077,-0.5751,0.6712,0
5945151,0.9501,0.2137,0.1389,-0.1801,-0.3201,-0.2925,0.6385,0
5945651,0.9514,0.2225,0.1288,-0.1695,-0.2478,-0.2277,0.3746,0
5946151,0.9526,0.2343,0.115,-0.1562,-0.4188,-0.1307,0.311,0
5946651,0.9534,0.2482,0.0975,-0.1414,-0.4491,-0.3685,0.2307,0
5947151,0.9534,0.2633,0.0766,-0.126,-0.4201,-0.3781,0.2241,0
5947651,0.9517,0.2807,0.054,-0.1122,-0.2262,-0.1156,0.1953,0
5948151,0.9497,0.2953,0.0318,-0.0993,-0.1778,-0.1721,0.1111,0
5948651,0.947,0.3092,0.0098,-0.0867,-0.2953,-0.2426,-0.0532,0
5949151,0.9434,0.3227,-0.0123,-0.0752,-0.0178,-0.0889,0.0788,0
5949651,0.9399,0.3338,-0.0339,-0.0639,-0.0138,0.0485,0.0452,0
5950151,0.936,0.3439,-0.0544,-0.0515,-0.1041,-0.0955,-0.1332,0
5950651,0.9321,0.3525,-0.0738,-0.0389,0.0158,0.0058,-0.1418,0
5951151,0.9286,0.3591,-0.0896,-0.0276,-0.1313,-0.1758,-0.327,0
5951651,0.9258,0.3635,-0.1019,-0.0184,0.1958,-0.2364,-0.1615,0
5952151,0.924,0.367,-0.107,-0.0115,0.5112,-0.162,-0.2756,0
5952651,0.9236,0.3689,-0.1043,-0.0082,-0.2307,-0.607,-0.5054,0
5953151,0.9243,0.3692,-0.0961,-0.0107,0.4043,0.1426,-0.3579,0
5953651,0.9265,0.3665,-0.0836,-0.017,-0.1114,-0.4442,-0.4223,0
5954151,0.9291,0.3622,-0.0685,-0.0287,-0.1563,-0.0103,0.0888,0
5954651,0.9329,0.3538,-0.0517,-0.0421,-0.2309,-0.5569,0.2882,0
5955151,0.9361,0.3452,-0.0339,-0.0583,-0.2314,-0.1766,-0.348,0
5955651,0.9385,0.3367,-0.0116,-0.0755,-0.175,-0.1154,0.2035,0
5956151,0.9405,0.326,0.0144,-0.0949,-0.0947,-0.0997,0.0914,0
5956651,0.9424,0.3117,0.0419,-0.1141,0.3232,-0.2012,-0.4451,0
5957151,0.9434,0.2966,0.0713,-0.1303,-1.0033,-0.3766,0.2444,0
5957651,0.9432,0.2812,0.0971,-0.148,0.2703,-0.1635,-0.0625,0
5958151,0.9417,0.2681,0.1231,-0.162,0.5557,-0.1583,0.2933,0
5958651,0.9389,0.2583,0.1491,-0.1718,-1.9725,-1.069,1.1337,0
5959151,0.9367,0.2534,0.1609,-0.1802,0.1279,-0.1205,0.7532,0
5959651,0.9366,0.2513,0.1644,-0.1807,-0.6959,-0.4359,1.3715,0
5960151,0.938,0.2546,0.1563,-0.1759,-0.2191,-0.1886,1.1464,0
5960651,0.9409,0.2606,0.1396,-0.1651,-0.5808,-0.4147,0.6851,0
5961151,0.9435,0.2707,0.1167,-0.1515,-0.2723,-0.1404,0.3762,0
5961651,0.9455,0.2823,0.0903,-0.1352,-0.3184,-0.2477,0.055,0
5962151,0.9466,0.2933,0.0637,-0.1178,-0.2888,-0.351,-0.3202,0
5962651,0.9461,0.3054,0.0371,-0.1016,-0.0298,-0.0071,-0.2288,0
5963151,0.9445,0.3167,0.0138,-0.0861,-0.0973,-0.133,-0.2123,0
5963651,0.9422,0.3273,-0.0072,-0.0711,-0.0511,-0.1464,-0.2682,0
5964151,0.9391,0.3378,-0.0253,-0.0579,-0.0804,-0.0621,-0.2928,0
5964651,0.9359,0.347,-0.0411,-0.0454,-0.1047,-0.1162,0.0974,0
5965151,0.9327,0.3545,-0.0572,-0.0337,-0.061,-0.0225,-0.0187,0
5965651,0.9294,0.3611,-0.0724,-0.0228,0.1796,-0.2985,-0.2577,0
5966151,0.9261,0.3676,-0.0835,-0.0126,-0.1082,-0.3128,-0.1832,0
5966651,0.9243,0.3714,-0.0883,-0.0059,0.0472,-0.1771,-0.3239,0
5967151,0.924,0.3723,-0.0871,-0.0036,0.0151,-0.2286,-0.2864,0
5967651,0.9249,0.3716,-0.0802,-0.0052,0.4258,0.0133,-0.4062,0
5968152,0.9266,0.3696,-0.069,-0.0104,-0.1776,-0.1184,-0.0121,0
5968652,0.9292,0.3648,-0.0566,-0.0183,0.1519,-0.1508,-0.0854,0
5969152,0.9319,0.3593,-0.0421,-0.0279,0.1759,-0.1967,0.3517,0
5969652,0.9347,0.3523,-0.0266,-0.0386,-0.3821,-0.4729,-0.3751,0
5970152,0.9362,0.3474,-0.0086,-0.0533,-0.0233,-0.0416,-0.147,0
5970652,0.9392,0.3361,0.0113,-0.0687,-0.6872,-0.5272,-0.0823,0
5971152,0.9406,0.3275,0.0305,-0.0844,-0.2525,-0.28,-0.4095,0
5971652,0.9415,0.3172,0.0526,-0.1005,0.4917,0.1599,0.7976,0
5972152,0.9419,0.3066,0.078,-0.1129,-0.2025,-0.6828,-0.4965,0
5972652,0.9414,0.2952,0.1038,-0.1258,0.0732,0.0631,-0.1028,0
5973152,0.9405,0.2831,0.1283,-0.1373,-0.6363,-0.4061,0.5633,0
5973652,0.9389,0.2771,0.1434,-0.1453,-0.4546,-0.2069,1.3309,0
5974152,0.9387,0.2737,0.1477,-0.1484,-0.5124,-0.1285,1.4342,0
5974652,0.9404,0.2737,0.1395,-0.1457,-0.2007,-0.2279,1.1075,0
5975152,0.9423,0.2783,0.1243,-0.138,-0.3936,-0.2088,0.5477,0
5975652,0.9439,0.286,0.1046,-0.1276,-0.3064,-0.1338,0.1768,0
5976152,0.9453,0.2939,0.0824,-0.115,-0.4613,-0.0458,0.0999,0
5976652,0.9459,0.3022,0.0589,-0.102,-0.3712,-0.0441,0.1932,0
5977152,0.9456,0.3114,0.0355,-0.0871,-0.0842,-0.4504,-0.1494,0
5977652,0.9441,0.3218,0.0097,-0.0705,-0.0129,-0.2351,-0.1421,0
5978152,0.9414,0.3323,-0.0146,-0.0553,-0.1563,-0.1209,-0.1335,0
5978652,0.9385,0.3408,-0.0363,-0.041,0.0167,-0.1401,-0.2245,0
5979152,0.9352,0.3488,-0.0539,-0.0287,0.0537,-0.0559,-0.0992,0
5979652,0.9323,0.3544,-0.0698,-0.0181,0.2558,-0.201,-0.2702,0
5980152,0.9292,0.3604,-0.0814,-0.0093,0.2155,-0.2293,-0.2267,0
5980652,0.9266,0.3656,-0.0879,-0.0013,0.2538,-0.371,-0.3445,0
5981152,0.925,0.3694,-0.0888,0.0045,0.2646,-0.316,-0.156,0
5981652,0.9245,0.3718,-0.0845,0.007,-0.1782,0.1869,-0.184,0
5982152,0.9251,0.3715,-0.0781,0.0051,0.138,0.1134,-0.1987,0
5982652,0.9264,0.3698,-0.0712,-0.0002,-0.0884,-0.3927,0.033,0
5983152,0.9279,0.3685,-0.0524,0.0192,0.0292,-0.0897,-0.0117,0
5983652,0.9297,0.3657,-0.042,0.0099,0.0317,0.0369,0.1137,0
5984152,0.9327,0.3594,-0.0316,-0.0003,-0.2123,-0.4259,-0.5013,0
5984652,0.935,0.3539,-0.0178,-0.0136,0.0573,-0.2326,-0.1,0
5985152,0.9376,0.3467,-0.0013,-0.0285,-0.2264,-0.1767,-0.3961,0
5985652,0.9395,0.3391,0.0194,-0.0452,0.1926,0.453,0.5519,0
5986152,0.9419,0.3278,0.0422,-0.0601,-0.0336,0.1636,0.3448,0
5986652,0.9437,0.3154,0.0665,-0.074,0.0204,-0.4941,-0.0624,0
5987152,0.9435,0.3051,0.0939,-0.0894,-0.1314,-0.0249,0.2325,0
5987652,0.9422,0.2947,0.1215,-0.1032,-0.546,-0.3741,0.0219,0
5988152,0.9396,0.2865,0.1457,-0.1176,0.2188,-0.0939,0.5821,0
5988652,0.9378,0.2785,0.1636,-0.1275,-0.3272,0.0464,0.6495,0
5989152,0.9367,0.2744,0.1729,-0.1317,-0.2621,-0.425,0.852,0
5989652,0.937,0.2749,0.171,-0.1314,-0.1055,0.0462,1.0993,0
5990152,0.9389,0.2778,0.1609,-0.1245,-0.2617,-0.1354,0.8974,0
5990652,0.9411,0.2839,0.1445,-0.1135,-0.31,-0.1645,0.5948,0
5991152,0.9434,0.2913,0.1233,-0.1,-0.2815,-0.2693,0.359,0
5991652,0.945,0.2998,0.099,-0.085,-0.3443,-0.3643,0.0742,0
5992152,0.9455,0.3096,0.0736,-0.0696,0.0006,-0.2543,-0.1552,0
5992652,0.9443,0.3208,0.0496,-0.0549,-0.109,0.0724,-0.0648,0
5993152,0.9422,0.3315,0.0264,-0.0409,-0.0574,-0.0682,-0.2195,0
5993652,0.9392,0.3421,0.005,-0.0287,-0.0882,-0.1144,-0.1846,0
5994152,0.9364,0.3502,-0.0149,-0.0169,-0.0248,0.1181,-0.0652,0
5994652,0.9337,0.3566,-0.0328,-0.0054,0.2397,-0.1933,-0.2703,0
5995152,0.9303,0.3636,-0.0478,0.0049,0.1024,-0.1052,-0.2516,0
5995652,0.9272,0.3695,-0.0596,0.0126,0.505,-0.0795,-0.5809,0
5996152,0.9251,0.3739,-0.064,0.0166,0.064,-0.1607,-0.3165,0
5996652,0.9243,0.376,-0.0631,0.0176,0.2382,-0.0917,-0.0625,0
5997152,0.925,0.3754,-0.057,0.015,0.1547,-0.0175,-0.7054,0
5997652,0.9266,0.373,-0.0466,0.0079,0.2039,-0.4425,-0.2735,0
5998152,0.9284,0.3701,-0.0327,-0.003,0.2894,0.1974,-0.1499,0
5998652,0.9301,0.3666,-0.0156,-0.0145,-0.1238,-0.2508,-0.2857,0
5999152,0.931,0.3638,0.005,-0.03,-0.2961,0.3921,0.932,0
5999652,0.933,0.356,0.0235,-0.0466,0.4048,0.1492,0.5402,0
6000152,0.9352,0.346,0.042,-0.0628,-0.1573,-0.1821,-0.2973,0
6000652,0.936,0.337,0.0629,-0.0794,0.2487,-0.2872,-0.1485,0
6001152,0.9365,0.3271,0.0838,-0.0945,0.4856,-0.1046,-0.2123,0
6001652,0.9357,0.3179,0.1101,-0.106,-1.1341,-0.2216,-0.0292,0
6002152,0.9343,0.3096,0.1321,-0.1171,0.7234,0.0419,0.25,0
6002652,0.9328,0.3047,0.1498,-0.1207,-1.2251,-0.6558,1.7479,0
6003152,0.9338,0.3036,0.1472,-0.1191,0.0274,0.1994,1.3356,0
6003652,0.936,0.3051,0.1356,-0.1112,-0.1332,-0.0913,0.9705,0
6004152,0.9379,0.3102,0.119,-0.0996,-0.2153,-0.098,0.2312,0
6004652,0.9391,0.3176,0.0998,-0.0855,-0.3047,-0.0366,0.1283,0
6005152,0.9398,0.3258,0.0773,-0.0689,-0.2936,-0.4893,-0.396,0
6005652,0.9387,0.3361,0.0542,-0.0539,-0.0847,-0.1204,0.1169,0
6006152,0.9366,0.3468,0.0314,-0.0397,-0.0691,0.0695,0.3374,0
6006652,0.9346,0.3548,0.0085,-0.0249,-0.0452,-0.0857,-0.2409,0
6007152,0.9318,0.3627,-0.0119,-0.0117,-0.0765,-0.0341,-0.0725,0
6007652,0.9283,0.3706,-0.0314,0.001,-0.2702,-0.1003,-0.2981,0
6008152,0.924,0.379,-0.0487,0.0112,0.0861,-0.0083,-0.1473,0
6008652,0.9205,0.385,-0.0641,0.0191,0.3432,-0.2538,-0.4745,0
6009152,0.9179,0.3885,-0.0771,0.0247,0.7541,-0.413,-1.1634,0
6009652,0.9147,0.3948,-0.0811,0.0286,-0.2992,0.2682,0.5193,0
6010152,0.9141,0.396,-0.0819,0.0308,0.2757,0.0593,-0.1672,0
6010652,0.9145,0.3957,-0.0788,0.0311,0.0613,-0.2259,-0.0466,0
6011152,0.9158,0.3939,-0.0724,0.0284,0.0248,-0.1704,-0.2273,0
6011652,0.9185,0.3897,-0.0637,0.0222,0.2604,-0.5753,-0.9229,0
6012152,0.9205,0.3876,-0.0483,0.011,-0.047,-0.0562,-0.2635,0
6012652,0.923,0.3836,-0.0289,-0.0036,-0.2857,0.0446,0.1374,0
6013152,0.925,0.3794,-0.0063,-0.0201,0.5022,0.5048,0.7109,0
6013652,0.9282,0.3703,0.0169,-0.0329,0.0153,0.2093,0.5948,0
6014152,0.9319,0.3577,0.039,-0.0457,0.0357,-0.1904,-0.0846,0
6014652,0.9333,0.3488,0.0623,-0.0591,-0.277,-0.1665,-0.1904,0
6015152,0.9337,0.3406,0.0837,-0.0719,0.1116,0.1309,0.1851,0
6015652,0.9341,0.3312,0.1053,-0.0816,-0.5017,-0.3099,-0.0799,0
6016152,0.9334,0.3236,0.1253,-0.0919,0.0116,0.2491,0.2886,0
6016652,0.932,0.3169,0.1449,-0.1,0.0385,0.001,0.5162,0
6017152,0.9302,0.3128,0.1603,-0.1057,-0.2137,-0.1942,0.5114,0
6017652,0.9289,0.3099,0.1703,-0.1102,-0.2414,-0.3039,0.9604,0
6018153,0.9287,0.3092,0.1714,-0.1116,0.0236,-0.0194,0.9183,0
6018653,0.9298,0.3109,0.1649,-0.1079,-0.2546,-0.2134,1.0611,0
6019153,0.9318,0.3145,0.151,-0.1,-0.4436,0.0742,1.1218,0
6019653,0.9346,0.3188,0.1303,-0.0889,-0.043,-0.2231,0.2372,0
6020153,0.9364,0.3258,0.1063,-0.0755,-0.2661,0.0303,0.232,0
6020653,0.937,0.3342,0.0813,-0.0613,-0.1094,-0.2364,-0.3249,0
6021153,0.9359,0.3444,0.057,-0.047,-0.1325,-0.2791,-0.7183,0
6021653,0.9332,0.3561,0.0355,-0.034,-0.0201,-0.0677,-0.2446,0
6022153,0.9297,0.3673,0.0174,-0.0224,0.1283,0.2705,0.545,0
6022653,0.9266,0.3759,-0.0007,-0.0103,-0.0234,-0.1346,0.0938,0
6023153,0.9232,0.3838,-0.0189,0.0003,-0.1517,-0.1473,-0.027,0
6023653,0.92,0.3901,-0.037,0.0096,0.0025,-0.0626,-0.2555,0
6024153,0.9172,0.3944,-0.0528,0.0177,-0.0903,-0.052,-0.2704,0
6024653,0.9144,0.3983,-0.0676,0.0239,0.2755,-0.0369,-0.3073,0
6025153,0.9125,0.4004,-0.0786,0.0296,0.0617,-0.1881,-0.2852,0
6025653,0.9115,0.4013,-0.0842,0.0331,0.3845,-0.1632,-0.6734,0
6026153,0.9108,0.4026,-0.085,0.0339,0.3082,-0.02,-0.3776,0
6026653,0.9112,0.4025,-0.0816,0.0322,0.1466,-0.0484,-0.3598,0
6027153,0.9124,0.4013,-0.0752,0.0279,0.2138,-0.1713,-0.3397,0
6027653,0.9143,0.3988,-0.0675,0.0211,0.0772,-0.2178,-0.2772,0
6028153,0.9163,0.3962,-0.0576,0.0115,-0.2095,-0.2718,-0.0503,0
6028653,0.9182,0.3933,-0.0475,-0.0012,0.274,0.1651,0.0065,0
6029153,0.9199,0.3872,-0.0465,-0.0412,-0.6228,-0.0113,0.0219,0
6029653,0.9215,0.383,-0.0313,-0.0565,0.6658,0.3294,0.3691,0
6030153,0.9239,0.376,-0.0142,-0.0689,0.0206,-0.0841,0.0858,0
6030653,0.9264,0.3676,0.0048,-0.0819,0.0416,-0.0262,-0.2042,0
6031153,0.9279,0.3601,0.0253,-0.0933,-0.0146,-0.1405,0.2467,0
6031653,0.9285,0.3529,0.048,-0.1055,-0.335,-0.2215,-0.0527,0
