SampleTimeFine,Quat_W,Quat_X,Quat_Y,Quat_Z,FreeAcc_X,FreeAcc_Y,FreeAcc_Z,Status
34576639,0.7384,-0.1559,0.6454,0.1182,-0.0005,0.0214,0.0656,0
34576806,0.7386,-0.1554,0.6453,0.1183,-0.0003,-0.0108,0.0568,0
34577306,0.7386,-0.1554,0.6452,0.1187,-0.0312,-0.0301,0.082,0
34577806,0.7385,-0.1551,0.6454,0.1185,-0.0244,-0.0114,0.0949,0
34578306,0.7384,-0.1547,0.6456,0.1184,-0.0099,-0.0189,0.0677,0
34578806,0.7384,-0.1543,0.6457,0.1183,-0.0241,-0.0046,0.0527,0
34579306,0.7385,-0.1538,0.6458,0.1182,-0.0122,-0.0187,0.0516,0
34579806,0.7384,-0.1533,0.646,0.1182,-0.0043,0.0315,0.0624,0
34580306,0.7384,-0.1531,0.6461,0.1181,-0.0376,-0.0897,0.0281,0
34580806,0.7384,-0.1524,0.6463,0.1177,-0.0048,-0.0058,0.1121,0
34581306,0.7384,-0.1522,0.6463,0.1178,-0.022,-0.0045,0.0282,0
34581806,0.7384,-0.1522,0.6463,0.1179,-0.0472,-0.0823,0.0507,0
34582306,0.7385,-0.1516,0.6464,0.1179,-0.0436,-0.0185,0.0567,0
34582806,0.7385,-0.1512,0.6463,0.1182,-0.0117,0.0389,0.0518,0
34583306,0.7385,-0.151,0.6463,0.1184,-0.0561,-0.0995,0.0367,0
34583806,0.7386,-0.1505,0.6464,0.1184,-0.0875,-0.0526,0.0411,0
34584306,0.7387,-0.1498,0.6464,0.1185,-0.0378,0.0219,0.0687,0
34584806,0.7388,-0.1496,0.6464,0.1186,-0.0393,-0.0843,0.0639,0
34585306,0.7389,-0.1491,0.6463,0.1185,-0.077,-0.0261,0.0592,0
34585806,0.7391,-0.1486,0.6462,0.1186,-0.0657,-0.0405,0.0847,0
34586306,0.7396,-0.1475,0.6459,0.1188,-0.2154,-0.185,0.2697,0
34586806,0.7412,-0.1441,0.6445,0.1201,-0.4343,-0.1167,0.1257,0
34587306,0.7442,-0.1377,0.6424,0.1206,0.1761,-0.3958,-0.5403,0
34587806,0.7449,-0.1334,0.6429,0.1188,-0.4487,-1.132,-0.6574,0
34588306,0.7473,-0.1209,0.644,0.1109,-0.2169,-0.4808,0.1009,0
34588806,0.7495,-0.1079,0.647,0.0898,-0.5534,-1.0089,0.2031,0
34589306,0.7527,-0.0912,0.6487,0.0656,0.0337,1.0291,0.869,0
34589806,0.7559,-0.0744,0.6492,0.0397,0.0257,-0.4391,-0.314,0
34590306,0.7572,-0.06,0.6501,0.0182,-0.118,0.2351,1.1223,0
34590806,0.7626,-0.0465,0.6452,0.0036,0.0795,0.2158,-0.6848,0
34591306,0.7665,-0.0399,0.641,-0.0019,0.8993,0.8251,-0.8077,0
34591806,0.7635,-0.0425,0.6444,-0.0027,-0.4089,-0.0385,-0.2728,0
34592306,0.7601,-0.038,0.6487,-0.0032,-0.1871,0.6677,0.8326,0
34592806,0.7578,-0.0341,0.6516,-0.0027,0.5913,0.4252,-0.6484,0
34593306,0.7506,-0.0344,0.6599,-0.0015,-0.5203,-0.1128,1.5669,0
34593806,0.7472,-0.0341,0.6637,-0.0106,-0.1582,-1.0382,-0.9742,0
34594306,0.7405,-0.0292,0.6711,-0.0195,-0.5756,-0.2213,0.8827,0
34594806,0.7364,-0.0248,0.6752,-0.033,0.2878,0.1391,-0.7255,0
34595306,0.7282,-0.0237,0.6837,-0.0403,-0.3125,0.3028,0.7546,0
34595806,0.7244,-0.0219,0.6875,-0.0474,0.136,0.2834,0.2564,0
34596306,0.7256,-0.0211,0.6863,-0.0453,0.665,0.9,0.5175,0
34596806,0.7286,-0.0205,0.6835,-0.0386,-0.2097,-0.4027,-0.1412,0
34597306,0.7326,-0.021,0.6794,-0.0366,-0.2344,-0.6473,0.1449,0
34597806,0.7361,-0.0208,0.6753,-0.0413,-0.0734,-0.2702,-0.2832,0
34598306,0.7405,-0.017,0.67,-0.0498,-0.3512,0.1897,1.158,0
34598806,0.7499,-0.0116,0.6587,-0.0609,0.532,0.4967,0.4805,0
34599306,0.7569,-0.0104,0.6498,-0.0693,-0.139,-0.4333,-0.0733,0
34599806,0.7619,-0.0102,0.6435,-0.0727,-0.4692,0.0722,0.0051,0
34600306,0.7643,-0.0097,0.6405,-0.0751,-0.4299,-0.4388,-0.9128,0
34600806,0.7639,-0.0079,0.6407,-0.0767,-0.0587,-0.2786,-0.5919,0
34601306,0.7622,-0.0069,0.6425,-0.0789,-0.1892,0.0553,0.4729,0
34601806,0.7623,-0.0054,0.6424,-0.0787,0.2879,0.3861,0.4586,0
34602306,0.7644,-0.0048,0.6405,-0.0732,0.3713,0.2631,0.0188,0
34602806,0.7637,-0.008,0.6421,-0.0668,-0.2836,-0.2365,-0.1064,0
34603306,0.7633,-0.0081,0.6432,-0.0599,-0.1651,-0.0409,0.1887,0
34603806,0.7629,-0.0086,0.6443,-0.0537,0.2142,-0.247,-0.4684,0
34604306,0.7584,-0.0092,0.6499,-0.0487,-0.9561,-0.5682,0.4718,0
34604806,0.7557,-0.0051,0.653,-0.05,0.5267,-0.0708,-0.5122,0
34605306,0.7466,-0.0039,0.6634,-0.0501,-0.7088,-0.315,0.8841,0
34605806,0.7425,-0.0009,0.6674,-0.0578,0.5851,-0.158,0.067,0
34606306,0.7351,-0.0012,0.6752,-0.0619,-0.4284,0.6156,-0.1285,0
34606806,0.7288,-0.0014,0.6814,-0.0673,-0.1838,-0.3223,0.0596,0
34607306,0.7272,-0.0005,0.6835,-0.0637,0.2616,1.3325,1.0943,0
34607806,0.7302,0.0012,0.6807,-0.0585,0.2815,-0.728,-0.7311,0
34608306,0.7301,-0.0002,0.6812,-0.0546,-0.5031,-0.8114,0.514,0
34608806,0.7313,-0.0016,0.6798,-0.0553,0.0185,0.0823,-0.1253,0
34609306,0.7323,-0.001,0.6786,-0.0571,-0.1931,0.1554,-0.0136,0
34609806,0.7331,0.0003,0.6775,-0.0599,-0.2699,-0.0738,0.4193,0
34610306,0.7362,0.0019,0.6737,-0.0646,0.3655,0.317,0.3797,0
34610806,0.7415,0.0019,0.6673,-0.0693,0.049,0.0512,0.5937,0
34611306,0.7489,0.0007,0.6586,-0.0733,0.0215,0.1432,-0.0675,0
34611806,0.7549,-0.0032,0.6514,-0.076,-0.4831,-0.317,-0.6456,0
34612306,0.7581,-0.0033,0.6476,-0.0775,-0.6862,-0.7597,-0.4728,0
34612806,0.7576,-0.002,0.6478,-0.0802,-0.4453,-0.1552,0.143,0
34613306,0.757,-0.0005,0.6483,-0.0818,0.2216,0.1413,0.128,0
34613806,0.7574,-0.0027,0.6481,-0.0793,0.2108,0.2047,0.4111,0
34614306,0.7588,-0.0043,0.6468,-0.0761,0.0189,-0.1399,-0.1776,0
34614806,0.7587,-0.0066,0.6475,-0.0716,-0.5168,-0.1373,-0.0223,0
34615306,0.7585,-0.0052,0.6481,-0.0684,-0.3792,-0.2489,0.0659,0
34615806,0.7576,-0.0036,0.6492,-0.0668,-0.1546,0.0722,-0.4409,0
34616306,0.7526,-0.0025,0.6549,-0.0687,-0.2219,-0.4161,0.0042,0
34616806,0.7448,-0.0016,0.6633,-0.0723,-0.1958,0.448,-0.3101,0
34617306,0.7377,0.0015,0.6709,-0.0749,-0.0386,0.0321,0.6542,0
34617806,0.7331,0.0025,0.6758,-0.0762,0.1406,0.1028,0.1462,0
34618306,0.7312,0.0043,0.6782,-0.0733,0.1108,0.2011,1.095,0
34618806,0.7342,0.0048,0.6753,-0.0702,0.2825,-0.2527,-0.4946,0
34619306,0.7347,0.0025,0.6748,-0.07,-0.6003,-0.5734,0.0809,0
34619806,0.7359,0.0029,0.6731,-0.0735,-0.3544,0.2157,0.3764,0
34620306,0.7391,0.0055,0.6689,-0.0793,0.2789,0.1358,0.3907,0
34620807,0.7453,0.0088,0.6614,-0.0831,0.0467,0.1735,0.4726,0
34621307,0.751,0.0093,0.6546,-0.0861,-0.0767,0.1486,-0.1471,0
34621807,0.7552,0.0092,0.6491,-0.0909,-0.0887,-0.0645,-0.2297,0
34622307,0.757,0.0079,0.6465,-0.095,-0.2958,-0.0761,-0.4069,0
34622807,0.7565,0.0081,0.6463,-0.1,-0.6711,-0.6291,-0.2452,0
34623307,0.7558,0.0113,0.6463,-0.1044,-0.1251,0.0456,0.0853,0
34623807,0.7548,0.0128,0.647,-0.1072,-0.0756,-0.0286,0.1343,0
34624307,0.7539,0.0141,0.6477,-0.1093,0.1388,0.2109,0.3859,0
34624807,0.7549,0.0148,0.6466,-0.1087,0.2793,0.0375,0.1267,0
34625307,0.7575,0.013,0.6442,-0.1054,0.0397,-0.0286,-0.1385,0
34625807,0.758,0.0097,0.6441,-0.1025,-0.3604,-0.133,-0.1094,0
34626307,0.7579,0.0081,0.6451,-0.0973,-0.1094,-0.0732,-0.2462,0
34626807,0.7565,0.0073,0.6476,-0.0909,-0.2551,-0.1463,0.0825,0
34627307,0.7543,0.0081,0.6506,-0.0871,-0.0088,-0.0275,-0.4949,0
34627807,0.749,0.0099,0.6571,-0.0844,-0.3093,-0.3093,0.5447,0
34628307,0.7453,0.0123,0.661,-0.0869,0.2739,0.0137,-0.5328,0
34628807,0.7348,0.0118,0.6723,-0.0888,-0.4698,0.1974,0.026,0
34629307,0.7289,0.0141,0.6784,-0.091,0.595,0.6288,0.9631,0
34629807,0.7306,0.0132,0.677,-0.0879,0.0744,-0.2329,0.1048,0
34630307,0.7328,0.0122,0.6754,-0.082,-0.3409,-0.2042,0.1674,0
34630807,0.7337,0.0107,0.6745,-0.0813,-0.5016,-0.3109,-0.1987,0
34631307,0.7352,0.0113,0.6726,-0.0831,-0.1843,-0.2828,-0.4589,0
34631807,0.7372,0.0135,0.6701,-0.086,-0.0699,0.2512,0.8039,0
34632307,0.7414,0.0147,0.6643,-0.0936,0.0516,0.2375,0.7019,0
34632807,0.7471,0.0143,0.6563,-0.1046,0.1059,-0.0654,0.2146,0
34633307,0.7538,0.014,0.6469,-0.1144,-0.3118,-0.0066,0.4179,0
34633807,0.7608,0.0142,0.6373,-0.1218,-0.3506,0.0277,-0.1321,0
34634307,0.7655,0.0131,0.6302,-0.1293,-0.5876,-0.4147,-0.3613,0
34634807,0.7769,-0.0589,0.6251,-0.0474,-0.6556,-0.484,-0.7575,0
34635307,0.7762,-0.0559,0.6258,-0.0529,0.1054,0.1748,-0.2476,0
34635807,0.7741,-0.0542,0.6284,-0.055,0.098,0.2705,0.1929,0
34636307,0.7729,-0.0528,0.63,-0.0544,0.364,0.4706,0.2936,0
34636807,0.7735,-0.052,0.6298,-0.049,0.2943,0.3551,-0.005,0
34637307,0.7728,-0.0545,0.6311,-0.04,0.0808,0.0501,-0.4776,0
34637807,0.7691,-0.0583,0.6357,-0.029,-0.3752,-0.3199,0.1507,0
34638307,0.7679,-0.0568,0.6377,-0.0188,0.0549,0.1799,-0.3999,0
34638807,0.7662,-0.0551,0.6402,-0.0088,0.2225,-0.1399,0.4725,0
34639307,0.7587,-0.0591,0.6487,-0.0099,-0.063,-1.5047,-0.887,0
34639807,0.7482,-0.0589,0.6607,-0.0139,-0.7977,0.5006,1.2846,0
34640307,0.7428,-0.0572,0.6668,-0.0167,0.2601,0.5487,-0.29,0
34640807,0.7369,-0.058,0.6733,-0.0167,0.1255,0.6428,1.3643,0
34641307,0.739,-0.0594,0.671,-0.0138,0.2369,-0.4588,-0.0758,0
34641807,0.7396,-0.0613,0.6702,-0.0103,-0.4649,-0.3639,-0.082,0
34642307,0.7396,-0.0622,0.6701,-0.0103,-0.2994,-0.303,-0.5622,0
34642807,0.7391,-0.0603,0.6708,-0.0115,-0.2985,-0.6199,0.0496,0
34643307,0.7403,-0.0553,0.6697,-0.0175,-0.3021,-0.1366,0.4686,0
34643807,0.7439,-0.0537,0.6656,-0.0261,0.5376,1.0031,0.745,0
34644307,0.7503,-0.0537,0.658,-0.0335,0.3652,0.562,0.6923,0
34644807,0.7605,-0.0533,0.6461,-0.0364,0.0287,-0.584,0.5093,0
34645307,0.7701,-0.0561,0.6343,-0.037,-0.0036,-0.4885,-1.3,0
34645807,0.7755,-0.0604,0.6275,-0.0352,-0.5873,-0.3515,-0.7207,0
34646307,0.7776,-0.0628,0.6247,-0.0332,-0.4202,0.0165,-0.6852,0
34646807,0.7748,-0.0625,0.6281,-0.0364,-0.3968,-0.2257,0.1751,0
34647307,0.7724,-0.0587,0.6312,-0.0394,0.2339,0.331,0.4545,0
34647807,0.772,-0.0567,0.632,-0.0375,0.3851,0.2319,0.4301,0
34648307,0.7723,-0.0582,0.6317,-0.0328,0.0934,-0.1295,-0.3541,0
34648807,0.7709,-0.0612,0.6334,-0.0279,-0.4029,-0.4804,-0.3322,0
34649307,0.7677,-0.0617,0.6373,-0.0251,-0.3293,-0.2095,-0.1197,0
34649807,0.7634,-0.0587,0.6428,-0.0219,-0.2909,-0.3711,0.1899,0
34650307,0.7606,-0.0513,0.6469,-0.0191,0.177,0.4634,0.0996,0
34650807,0.7527,-0.0477,0.6564,-0.0211,0.0513,-0.5056,0.2435,0
34651307,0.7486,-0.0433,0.6612,-0.0252,0.1992,0.0213,0.0178,0
34651807,0.7434,-0.0426,0.6668,-0.0286,-0.263,0.4276,-0.473,0
34652307,0.7365,-0.0398,0.6744,-0.034,-0.4998,-0.2692,0.6135,0
34652807,0.7324,-0.0386,0.6789,-0.0348,0.28,0.8458,-0.0164,0
34653307,0.7309,-0.0366,0.6808,-0.0301,0.0982,0.2812,0.4495,0
34653807,0.7327,-0.034,0.6793,-0.0246,0.2416,-0.2847,-0.1786,0
34654307,0.7327,-0.0362,0.6792,-0.0229,-0.3161,-0.4215,-0.0315,0
34654807,0.7336,-0.0379,0.6781,-0.0235,-0.1437,0.4015,-0.238,0
34655307,0.7342,-0.0387,0.6775,-0.0232,0.0332,0.2517,0.5224,0
34655807,0.7383,-0.0383,0.673,-0.0228,0.1644,0.1673,0.7541,0
34656307,0.745,-0.0386,0.6655,-0.0231,0.1257,0.0573,0.5742,0
34656807,0.7534,-0.0398,0.6558,-0.0258,0.0558,-0.4122,0.0623,0
34657307,0.7608,-0.0413,0.647,-0.0286,-0.3786,-0.0938,-0.2911,0
34657807,0.766,-0.0417,0.6406,-0.0338,-0.2367,-0.3902,-0.3917,0
34658307,0.767,-0.043,0.6389,-0.0403,-0.8053,-0.7232,0.0612,0
34658807,0.7665,-0.0407,0.6391,-0.0486,-0.2389,-0.0412,-0.1728,0
34659307,0.7658,-0.0371,0.6399,-0.0514,0.275,0.5628,-0.0271,0
34659807,0.7649,-0.0349,0.6415,-0.0475,0.0782,0.3247,-0.4803,0
34660307,0.7634,-0.0339,0.6436,-0.0439,0.1983,-0.0566,0.4439,0
34660807,0.7645,-0.034,0.6426,-0.0381,0.4396,0.2063,0.1183,0
34661307,0.7644,-0.037,0.6429,-0.0322,-0.3453,-0.4474,0.0049,0
34661807,0.7647,-0.0351,0.6428,-0.0288,-0.1954,-0.0977,0.4906,0
34662307,0.7645,-0.0325,0.6432,-0.0285,0.0556,-0.3106,-0.4499,0
34662807,0.7612,-0.0315,0.6472,-0.0266,-0.4829,-0.0341,0.2323,0
34663307,0.7599,-0.0278,0.649,-0.0251,0.5294,0.4001,0.1018,0
34663807,0.7519,-0.0278,0.6582,-0.0263,-0.4881,-0.3319,-0.625,0
34664307,0.7422,-0.0275,0.6691,-0.0247,-0.5313,0.3553,0.4224,0
34664807,0.7371,-0.0276,0.6748,-0.0209,0.0818,0.4732,1.5377,0
34665307,0.7436,-0.0195,0.668,-0.0186,1.0258,-0.6976,-0.9044,0
34665807,0.7429,-0.0222,0.6689,-0.0128,-0.3479,0.1962,0.5935,0
34666307,0.7436,-0.0249,0.668,-0.0161,-0.3034,-0.5663,-0.4938,0
34666807,0.7444,-0.0225,0.6671,-0.0198,-0.1711,0.4331,-0.1762,0
34667307,0.7439,-0.0215,0.6675,-0.0234,-0.1083,0.1753,0.6056,0
34667807,0.7471,-0.0196,0.6639,-0.0258,0.3341,0.3862,0.3849,0
34668307,0.752,-0.0198,0.6582,-0.0281,-0.0288,0.3591,0.6055,0
34668807,0.7589,-0.0207,0.6501,-0.0327,0.2286,0.1611,-0.2032,0
34669307,0.7649,-0.0225,0.6428,-0.0347,-0.1479,-0.1173,0.2598,0
34669807,0.769,-0.0248,0.6377,-0.0362,-0.317,-0.1068,-0.0666,0
34670307,0.7719,-0.0272,0.634,-0.0378,-0.2236,-0.3497,-0.6203,0
34670808,0.7707,-0.0291,0.6353,-0.0404,-0.5759,-0.4427,-0.4185,0
34671308,0.7668,-0.0276,0.6397,-0.0451,-0.4259,-0.461,-0.0824,0
34671808,0.7636,-0.0223,0.6434,-0.0492,0.1014,-0.0764,0.1141,0
34672308,0.7622,-0.0196,0.6451,-0.0507,0.4583,0.1363,0.2835,0
34672808,0.7622,-0.0204,0.6451,-0.0493,-0.0284,0.0247,0.1475,0
34673308,0.7633,-0.0214,0.6441,-0.045,0.235,0.2507,0.0699,0
34673808,0.7636,-0.0239,0.6442,-0.0367,-0.1144,0.0577,-0.4377,0
34674308,0.7619,-0.0234,0.6465,-0.0309,-0.4206,-0.4238,0.1775,0
34674808,0.7607,-0.0197,0.6481,-0.0302,0.3044,-0.0486,-0.5367,0
34675308,0.7541,-0.0187,0.6558,-0.0302,-0.384,0.1506,0.5273,0
34675808,0.749,-0.0187,0.6616,-0.0311,0.2218,0.1253,-0.2833,0
34676308,0.7419,-0.0172,0.6696,-0.0292,-0.1188,0.5866,-0.0637,0
34676808,0.7345,-0.0168,0.6778,-0.0292,-0.026,-0.2231,0.2538,0
34677308,0.7316,-0.0188,0.6811,-0.0247,0.3016,0.847,1.5771,0
34677808,0.7384,-0.0175,0.6738,-0.0221,0.5711,-0.8509,-0.3093,0
34678308,0.7398,-0.0212,0.6722,-0.0195,-0.7466,0.0937,-0.0949,0
34678808,0.7414,-0.0224,0.6703,-0.0233,-0.5868,-0.7507,-0.5339,0
34679308,0.7441,-0.0185,0.6672,-0.0277,0.1166,0.5293,0.689,0
34679808,0.7485,-0.016,0.6619,-0.0371,0.2237,0.0598,0.5436,0
34680308,0.7543,-0.0146,0.6547,-0.0463,0.0391,-0.0317,0.632,0
34680808,0.7603,-0.0138,0.6469,-0.0568,0.1174,-0.1322,0.0625,0
34681308,0.7651,-0.0145,0.6407,-0.0628,0.0024,0.2066,-0.1299,0
34681808,0.7683,-0.0165,0.6368,-0.0636,-0.3138,-0.1432,-0.6419,0
34682308,0.7691,-0.0171,0.6357,-0.0632,-0.3361,-0.3206,-0.6397,0
34682808,0.7667,-0.0156,0.6386,-0.0642,-0.4486,-0.2282,-0.0704,0
34683308,0.7636,-0.0125,0.6422,-0.0661,0.0281,-0.0273,0.2178,0
34683808,0.7621,-0.0107,0.6439,-0.0667,0.4909,0.2432,0.358,0
34684308,0.7495,0.0617,0.6416,-0.1508,0.1272,0.2091,0.2949,0
34684808,0.7509,0.061,0.6407,-0.1477,0.0145,-0.0468,-0.0782,0
34685308,0.753,0.0602,0.6396,-0.1425,0.2162,0.1225,0.112,0
34685808,0.7543,0.0567,0.6404,-0.1331,-0.0098,0.0458,-0.3721,0
34686308,0.7537,0.0546,0.6432,-0.1233,-0.2777,-0.1365,-0.2004,0
34686808,0.7525,0.0579,0.6456,-0.1165,0.0165,-0.3293,0.0179,0
34687308,0.7448,0.0585,0.6551,-0.1126,-0.2217,0.1895,-0.166,0
34687808,0.7353,0.0594,0.6653,-0.1145,-0.5542,-0.3362,0.257,0
34688308,0.7271,0.0594,0.6743,-0.1146,0.453,0.7159,0.1756,0
34688808,0.7187,0.0604,0.6825,-0.1189,-0.2549,-0.344,0.2114,0
34689308,0.718,0.059,0.6838,-0.1154,0.9357,1.3774,0.8002,0
34689808,,,,,,,,
