SampleTimeFine,Quat_W,Quat_X,Quat_Y,Quat_Z,FreeAcc_X,FreeAcc_Y,FreeAcc_Z,Status
8379036,0.2263,-0.5087,0.581,-0.5937,-0.0603,-0.0457,0.082,0
8379202,0.2264,-0.5087,0.5807,-0.5939,-0.088,-0.0816,0.0026,0
8379703,0.2263,-0.5091,0.5809,-0.5935,-0.0498,0.0459,0.105,0
8380203,0.2269,-0.5085,0.5814,-0.5932,-0.1108,0.0655,0.1069,0
8380703,0.2274,-0.5078,0.5818,-0.5933,-0.0922,0.0149,0.0371,0
8381203,0.2275,-0.5075,0.5819,-0.5933,-0.1332,0.0076,-0.0133,0
8381703,0.2268,-0.5071,0.5826,-0.5933,-0.0831,0.0825,-0.0042,0
8382203,0.226,-0.5069,0.5833,-0.5931,-0.0299,0.0977,0.0289,0
8382703,0.2259,-0.5065,0.5834,-0.5933,0.0386,0.0204,-0.0027,0
8383203,0.2256,-0.5057,0.5841,-0.5935,0.0002,-0.0242,-0.0208,0
8383703,0.2255,-0.505,0.585,-0.5932,-0.0218,0.045,0.0967,0
8384203,0.2266,-0.5052,0.5848,-0.5928,-0.0907,-0.0014,0.0308,0
8384703,0.2264,-0.5049,0.5861,-0.592,-0.0334,0.0378,0.1643,0
8385203,0.2268,-0.505,0.5857,-0.592,0.0531,-0.0904,0.2457,0
8385703,0.227,-0.5053,0.5853,-0.5921,0.044,-0.2694,0.1897,0
8386203,0.2264,-0.5051,0.5857,-0.5921,0.1114,-0.3943,0.319,0
8386703,0.2254,-0.5043,0.5857,-0.5932,0.0083,-0.0031,0.6723,0
8387203,0.2249,-0.5037,0.5815,-0.5979,-0.1539,-0.0818,0.4408,0
8387703,0.2206,-0.5031,0.5777,-0.6038,-0.012,0.1826,0.997,0
8388203,0.2138,-0.503,0.5696,-0.6139,-0.1201,0.4191,1.6488,0
8388703,0.2025,-0.5035,0.5538,-0.6315,-0.0655,0.8491,1.985,0
8389203,0.188,-0.505,0.5253,-0.6586,-0.2104,0.7939,1.3074,0
8389703,0.1637,-0.5098,0.4943,-0.6848,-0.6237,1.0839,1.1978,0
8390203,0.1339,-0.5136,0.4538,-0.7158,-0.4631,1.3569,0.3501,0
8390703,0.1088,-0.5168,0.3965,-0.751,-0.8791,1.0409,-0.8796,0
8391203,0.0753,-0.5184,0.3477,-0.7777,-0.5096,0.2083,-1.4626,0
8391703,0.0477,-0.5179,0.2991,-0.8,0.0354,-1.2593,-2.0996,0
8392203,0.0231,-0.5179,0.2696,-0.8115,-0.2227,-0.6215,-1.6899,0
8392703,0.0057,-0.5161,0.2526,-0.8184,0.009,-1.2313,-1.6137,0
8393203,0.0002,-0.5148,0.2458,-0.8213,-0.0267,-1.4735,-1.6446,0
8393703,0.0086,-0.5157,0.2504,-0.8193,-0.2869,-1.1109,-1.5284,0
8394203,0.0209,-0.5156,0.2734,-0.8118,-0.4095,-0.471,-1.1427,0
8394703,0.0382,-0.5133,0.3024,-0.8022,0.1587,-0.4088,-1.0537,0
8395203,0.0671,-0.5137,0.3314,-0.7885,-0.4461,-0.1646,-1.0911,0
8395703,0.0888,-0.5112,0.3763,-0.7676,-0.3615,0.0863,-0.9386,0
8396203,0.1159,-0.5077,0.4168,-0.745,-0.1338,0.3637,-0.3827,0
8396703,0.1414,-0.5049,0.4562,-0.719,-0.6809,0.8017,0.4293,0
8397203,0.159,-0.5,0.4926,-0.6943,-0.3978,0.4501,0.6871,0
8397703,0.1815,-0.4931,0.5152,-0.6771,-0.5597,0.0627,0.4813,0
8398203,0.1969,-0.4859,0.5394,-0.6589,-0.3352,0.1246,0.45,0
8398703,0.2145,-0.48,0.5561,-0.6437,-0.3682,0.0324,0.2589,0
8399203,0.2244,-0.4753,0.5767,-0.6254,-0.17,0.023,0.7659,0
8399703,0.2319,-0.4725,0.5912,-0.6111,-0.304,0.2876,1.8022,0
8400203,0.2346,-0.4704,0.5982,-0.6048,-0.0582,0.1528,1.8395,0
8400703,0.2342,-0.4702,0.597,-0.6064,-0.0706,-0.1095,1.7987,0
8401203,0.2284,-0.4728,0.5908,-0.6126,-0.227,-0.0576,1.836,0
8401703,0.216,-0.4774,0.5788,-0.6248,-0.5499,0.3998,1.8926,0
8402203,0.199,-0.4814,0.5559,-0.6478,-0.4021,0.1152,0.9822,0
8402703,0.1773,-0.485,0.5272,-0.6748,-0.2765,0.1313,0.2954,0
8403203,0.1533,-0.4902,0.4976,-0.699,-0.4315,0.3629,0.2116,0
8403703,0.1256,-0.4948,0.4662,-0.7225,-0.1619,0.5655,-0.348,0
8404203,0.0998,-0.4989,0.4298,-0.7459,-0.224,0.4991,-0.5164,0
8404703,0.0708,-0.502,0.3996,-0.7637,-0.3467,0.439,-0.5975,0
8405203,0.0463,-0.5041,0.367,-0.7804,-0.4248,0.3107,-0.7663,0
8405703,0.025,-0.5036,0.3352,-0.7958,-0.3432,-0.2834,-1.3169,0
8406203,0.0072,-0.5025,0.3113,-0.8066,-0.3168,-0.8373,-1.772,0
8406703,-0.0008,-0.502,0.2962,-0.8126,-0.3011,-1.3393,-1.8067,0
8407203,0.0032,-0.5021,0.2948,-0.813,-0.3085,-1.9299,-2.2178,0
8407703,0.0165,-0.5025,0.3171,-0.8041,-0.5562,-1.0241,-1.656,0
8408203,0.032,-0.4986,0.358,-0.7888,-0.0087,-0.6213,-1.4619,0
8408703,0.0632,-0.4957,0.395,-0.7709,-0.3022,-0.5694,-1.7666,0
8409203,0.0923,-0.4884,0.445,-0.745,-0.1908,1.0849,-0.7357,0
8409703,0.1306,-0.4806,0.4798,-0.7223,-0.3155,0.9214,0.0537,0
8410203,0.1603,-0.4716,0.5167,-0.6964,-0.407,0.8297,0.4092,0
8410703,0.1837,-0.4646,0.5494,-0.6698,-0.5784,0.6021,1.4211,0
8411203,0.2043,-0.4557,0.5706,-0.6519,-0.3925,-0.3634,1.0739,0
8411703,0.2214,-0.4459,0.5902,-0.6355,-0.3028,0.1237,1.8458,0
8412203,0.2281,-0.4391,0.6064,-0.6224,0.1839,0.0001,1.8954,0
8412703,0.233,-0.438,0.6106,-0.6173,-0.5904,0.0201,2.1367,0
8413203,0.2301,-0.4383,0.6085,-0.6203,-0.5538,0.1928,2.1518,0
8413703,0.2219,-0.4406,0.5972,-0.6325,-0.3688,0.0503,1.3975,0
8414203,0.2058,-0.4462,0.5829,-0.6471,-0.6951,0.7742,1.8729,0
8414703,0.183,-0.4505,0.5558,-0.6743,-0.0828,0.5553,0.8319,0
8415203,0.1606,-0.4577,0.5171,-0.7052,-0.932,0.7554,0.314,0
8415703,0.1312,-0.4633,0.4802,-0.7332,-0.496,0.4191,-0.6015,0
8416203,0.1008,-0.4668,0.4479,-0.7558,0.146,0.0136,-0.9912,0
8416703,0.0668,-0.4694,0.427,-0.77,0.2356,0.4669,-0.6238,0
8417203,0.0445,-0.4721,0.3934,-0.7877,-0.2163,0.0044,-1.0561,0
8417703,0.0227,-0.4717,0.3666,-0.8016,-0.1639,-0.5009,-1.304,0
8418203,0.0072,-0.4716,0.3441,-0.8119,-0.2794,-0.7797,-1.5523,0
8418703,-0.0016,-0.4732,0.3321,-0.8159,-0.7258,-0.9685,-1.7985,0
8419203,-0.0034,-0.4729,0.3337,-0.8155,-0.0476,-1.425,-1.9394,0
8419703,0.0074,-0.4766,0.3461,-0.8081,-0.488,-0.9107,-1.1885,0
8420203,0.0158,-0.4754,0.3779,-0.7943,-0.0533,-0.4562,-0.6061,0
8420703,0.0344,-0.4759,0.4026,-0.7812,0.0122,0.2334,-0.4883,0
8421203,0.065,-0.4745,0.4144,-0.7739,-0.1846,0.6689,-0.8966,0
8421703,0.0952,-0.4714,0.4353,-0.7611,-0.1657,0.4062,-0.4986,0
8422203,0.1192,-0.4654,0.4681,-0.7416,-0.1592,0.5102,-0.3472,0
8422703,0.1436,-0.4586,0.4988,-0.7213,-0.4498,0.2102,0.3037,0
8423203,0.1672,-0.4496,0.5256,-0.7026,-0.3331,0.6008,0.4799,0
8423703,0.188,-0.4422,0.5493,-0.6836,-0.4876,-0.3393,-0.1607,0
8424203,0.2034,-0.4373,0.5749,-0.661,-0.3908,0.0484,0.7916,0
8424703,0.2129,-0.4356,0.5971,-0.639,-0.5424,-0.0903,1.22,0
8425203,0.2192,-0.4344,0.6115,-0.624,-0.5256,-0.1458,1.8821,0
8425703,0.2181,-0.4324,0.619,-0.6183,-0.086,-0.1615,2.453,0
8426203,0.2132,-0.4335,0.6145,-0.6238,-0.1891,-0.1255,2.4685,0
8426703,0.202,-0.4371,0.5991,-0.6397,0.0724,-0.4637,1.6958,0
8427203,0.1864,-0.4437,0.5746,-0.662,-0.2503,0.1162,1.3858,0
8427703,0.1664,-0.4506,0.5428,-0.6889,-0.4928,-0.0813,0.7398,0
8428203,0.1433,-0.4564,0.509,-0.7156,-0.5557,0.6235,0.2423,0
8428703,0.1139,-0.4606,0.4798,-0.738,-0.2101,0.7826,-0.2206,0
8429203,0.0841,-0.464,0.4497,-0.7585,-0.258,1.1873,-0.7255,0
8429704,0.0583,-0.4669,0.4147,-0.7788,-0.4487,0.5546,-1.5408,0
8430204,0.0316,-0.4675,0.3911,-0.7921,-0.532,0.2236,-1.5552,0
8430704,0.0099,-0.4646,0.3721,-0.8035,0.0843,-0.5837,-1.7955,0
8431204,0.002,-0.4634,0.3553,-0.8118,0.0757,-1.6571,-1.684,0
8431704,0.0018,-0.4631,0.3566,-0.8114,0.2571,-1.8135,-1.4703,0
8432204,0.0135,-0.4671,0.3726,-0.8018,-0.1736,-0.943,-1.3041,0
8432704,0.0167,-0.4688,0.4186,-0.7776,-0.1339,-0.3659,-1.0052,0
8433204,0.029,-0.4721,0.4556,-0.7541,0.1178,0.0129,-0.7667,0
8433704,0.0544,-0.4769,0.4818,-0.7332,-0.6582,-0.0898,-1.2808,0
8434204,0.0787,-0.4773,0.515,-0.7076,-0.3582,0.5569,-1.3484,0
8434704,0.1115,-0.4761,0.5418,-0.6836,-0.6164,0.7229,-0.5108,0
8435204,0.14,-0.4706,0.5709,-0.658,-0.5213,1.1349,0.3613,0
8435704,0.1703,-0.4609,0.5883,-0.6422,-0.0928,0.8012,1.4346,0
8436204,0.1946,-0.4502,0.6006,-0.6315,0.0323,-0.09,1.2667,0
8436704,0.2099,-0.4434,0.6141,-0.6182,-0.1937,-0.0145,2.0041,0
8437204,0.6442,-0.7531,-0.0867,-0.1014,0.4797,0.1946,1.8799,0
8437704,0.6441,-0.7542,-0.0832,-0.0972,0.5063,0.2172,1.9348,0
8438204,0.6459,-0.752,-0.0852,-0.1006,0.1892,-0.0443,2.3106,0
8438704,0.6553,-0.7413,-0.0932,-0.1116,0.2155,-0.0462,1.2997,0
8439204,0.6623,-0.7306,-0.1037,-0.1298,-0.261,-0.4163,1.0664,0
8439704,0.674,-0.7137,-0.1178,-0.1498,-0.2901,-0.7398,0.7635,0
8440204,0.6847,-0.6957,-0.1309,-0.1735,-0.4044,-0.7031,0.5674,0
8440704,0.6948,-0.6748,-0.1419,-0.2045,-0.8089,-0.1553,0.4074,0
8441204,0.7082,-0.6465,-0.1602,-0.2343,-0.4861,-0.6037,-0.0055,0
8441704,0.7157,-0.6197,-0.178,-0.2684,-0.1884,-0.3453,-0.6302,0
8442204,0.7231,-0.5904,-0.1975,-0.2992,-0.1632,-0.4345,-1.175,0
8442704,0.7275,-0.5645,-0.214,-0.3261,0.6138,0.1464,-1.7364,0
8443204,0.728,-0.549,-0.2269,-0.3422,0.8434,-0.0164,-1.7984,0
8443704,0.7229,-0.5474,-0.2286,-0.3543,0.7896,0.2852,-1.4619,0
8444204,0.7241,-0.5441,-0.2286,-0.357,1.0184,0.9321,-1.3082,0
8444704,0.7254,-0.5486,-0.2256,-0.3493,0.9372,0.5946,-1.1394,0
8445204,0.7183,-0.5696,-0.2139,-0.3374,0.1472,-0.0964,-0.5184,0
8445704,0.7139,-0.588,-0.2038,-0.3212,0.5839,0.0388,-0.5379,0
8446204,0.7134,-0.6034,-0.1928,-0.2996,0.319,-0.2022,-0.5676,0
8446704,0.7105,-0.6221,-0.1779,-0.2766,0.0744,-0.3332,-0.4933,0
8447204,0.7049,-0.6428,-0.1606,-0.2532,-0.3515,-0.5207,-0.3054,0
8447704,0.7054,-0.6559,-0.1474,-0.2245,0.1757,-0.5279,-0.7834,0
8448204,0.6965,-0.6778,-0.1263,-0.199,-0.622,-0.5105,0.2063,0
8448704,0.692,-0.6916,-0.1112,-0.1746,-0.459,-0.7258,0.8256,0
8449204,0.6866,-0.7033,-0.0947,-0.158,-0.2605,-0.3675,0.9135,0
8449704,0.6818,-0.7124,-0.081,-0.1449,0.3716,-0.0224,0.7909,0
8450204,0.6756,-0.7214,-0.0682,-0.1361,0.2296,0.4618,1.3934,0
8450704,0.6709,-0.7274,-0.0602,-0.1307,0.3403,0.737,1.6228,0
8451204,0.6694,-0.7291,-0.0586,-0.1297,0.3279,0.5111,1.7498,0
8451704,0.6719,-0.7257,-0.063,-0.1341,0.1486,0.2456,1.559,0
8452204,0.6767,-0.7185,-0.0722,-0.1439,-0.1243,-0.1451,1.3622,0
8452704,0.6818,-0.7086,-0.0856,-0.1601,-0.464,-0.7409,1.5858,0
8453204,0.6952,-0.6875,-0.1055,-0.1816,-0.2683,-0.5506,0.5987,0
8453704,0.7041,-0.6679,-0.1249,-0.2063,-0.0736,-0.3482,0.1238,0
8454204,0.7091,-0.6492,-0.1421,-0.2356,-0.5181,-0.6146,0.4015,0
8454704,0.7182,-0.6219,-0.1613,-0.2671,-0.1019,-0.5074,-0.5329,0
8455204,0.7236,-0.5961,-0.1779,-0.2991,-0.1451,-0.266,-0.9462,0
8455704,0.7282,-0.5705,-0.1946,-0.3261,0.5334,0.213,-1.4433,0
8456204,0.7258,-0.5567,-0.2044,-0.3484,0.378,0.1732,-1.2347,0
8456704,0.7242,-0.5459,-0.2115,-0.3644,0.4019,0.3152,-1.268,0
8457204,0.7228,-0.5406,-0.2152,-0.3727,0.6664,0.3595,-1.4122,0
8457704,0.7223,-0.5416,-0.215,-0.3724,0.7491,0.5415,-1.4041,0
8458204,0.7203,-0.5525,-0.2097,-0.3632,0.3108,0.1149,-1.1356,0
8458704,0.7145,-0.5719,-0.1983,-0.351,0.1377,0.0493,-0.733,0
8459204,0.712,-0.5892,-0.1881,-0.3324,0.5306,0.0595,-1.2557,0
8459704,0.7059,-0.6137,-0.1727,-0.3085,0.1321,0.0045,-1.4364,0
8460204,0.702,-0.638,-0.1582,-0.2742,-0.1831,-0.2954,-0.978,0
8460704,0.6967,-0.6617,-0.1396,-0.2395,-0.8931,-0.3121,0.265,0
8461204,0.698,-0.6743,-0.1252,-0.2058,-0.2482,0.1028,0.3354,0
8461704,0.6973,-0.6858,-0.1129,-0.1749,-0.0568,-0.0718,0.7903,0
8462204,0.6935,-0.6976,-0.1013,-0.1485,-0.1838,-0.2037,1.1296,0
8462704,0.6917,-0.7048,-0.0941,-0.1263,0.285,-0.1841,0.6917,0
8463204,0.6897,-0.7109,-0.0862,-0.1073,0.2432,-0.0179,0.4012,0
8463704,0.6842,-0.7189,-0.0783,-0.0939,-0.0733,-0.2084,1.5131,0
8464204,0.6836,-0.7206,-0.0766,-0.0865,0.378,-0.2555,1.3096,0
8464704,0.6818,-0.7223,-0.076,-0.0872,0.1868,-0.1307,1.4947,0
8465204,0.6821,-0.7208,-0.0805,-0.0935,0.029,-0.0976,1.7296,0
8465704,0.6849,-0.7152,-0.0901,-0.1064,-0.1146,-0.0239,1.7928,0
8466204,0.6921,-0.703,-0.1039,-0.1267,-0.1018,-0.0868,1.3472,0
8466704,0.7012,-0.6858,-0.1217,-0.1524,-0.1681,-0.0781,0.8915,0
8467204,0.711,-0.6642,-0.1426,-0.1816,-0.3014,-0.1833,0.4983,0
8467704,0.7178,-0.6421,-0.1661,-0.2117,-0.096,-0.3231,-0.1099,0
8468204,0.7211,-0.621,-0.1876,-0.2432,0.0447,-0.2882,-0.752,0
8468704,0.7229,-0.5999,-0.2054,-0.2744,-0.3073,-0.3572,-0.7868,0
8469204,0.724,-0.5787,-0.2212,-0.3032,0.2727,-0.1781,-1.1848,0
8469704,0.7247,-0.559,-0.2322,-0.3293,0.2397,-0.0333,-1.1358,0
8470204,0.726,-0.5413,-0.2381,-0.3511,0.6262,0.0536,-1.2344,0
8470704,0.7275,-0.5285,-0.2388,-0.3665,0.7081,0.4654,-1.2493,0
8471204,0.7313,-0.5196,-0.2392,-0.3716,0.9704,0.7317,-1.4171,0
8471704,0.7318,-0.5235,-0.2345,-0.368,0.6395,0.8189,-1.265,0
8472204,0.7271,-0.5413,-0.2266,-0.3564,0.1999,-0.0259,-0.7549,0
8472704,0.7238,-0.5589,-0.2174,-0.3413,0.2412,0.0502,-0.4835,0
8473204,0.7254,-0.5725,-0.2064,-0.3216,0.4603,0.4743,-0.7806,0
8473704,0.7289,-0.5862,-0.1924,-0.2967,-0.0491,0.3607,-0.4804,0
8474204,0.7274,-0.6054,-0.1757,-0.271,-0.1755,-0.1861,0.1262,0
8474704,0.7243,-0.6231,-0.1604,-0.2478,-0.2743,-0.2197,0.3717,0
8475204,0.7183,-0.6415,-0.1457,-0.2265,-0.1157,-0.3222,0.0493,0
8475704,0.7122,-0.6573,-0.135,-0.206,-0.4595,-0.7117,0.3359,0
8476204,0.7075,-0.6694,-0.1256,-0.1885,0.188,-0.1603,-0.2024,0
8476704,0.7016,-0.6821,-0.1159,-0.1705,-0.0471,-0.1588,0.0574,0
8477204,0.6937,-0.6955,-0.1064,-0.154,0.0034,-0.04,0.58,0
8477704,0.6902,-0.7031,-0.0998,-0.1388,0.0699,-0.1615,0.7681,0
8478204,0.684,-0.712,-0.0936,-0.1283,0.0155,0.0176,1.0576,0
8478704,0.6789,-0.7183,-0.0914,-0.122,0.0792,-0.1597,1.3976,0
8479204,0.6754,-0.7215,-0.0916,-0.122,0.2041,-0.0549,1.5111,0
8479705,0.6751,-0.7203,-0.0955,-0.1279,0.0864,0.1349,1.583,0
8480205,0.6755,-0.7161,-0.1047,-0.141,-0.2063,-0.2025,1.5073,0
8480705,0.6776,-0.7076,-0.1183,-0.1616,-0.2076,-0.2119,1.2063,0
8481205,0.6808,-0.6949,-0.1353,-0.1879,-0.2323,-0.676,0.997,0
8481705,0.6862,-0.6763,-0.1543,-0.2189,-0.036,-0.4224,0.3298,0
8482205,0.6939,-0.652,-0.1723,-0.2522,-0.0804,-0.0947,-0.4073,0
8482705,0.6998,-0.6278,-0.1894,-0.2832,0.1207,-0.3513,-0.51,0
8483205,0.7039,-0.6041,-0.2027,-0.3138,0.0494,-0.1936,-0.5846,0
8483705,0.708,-0.5796,-0.2146,-0.3418,0.0817,-0.0304,-0.8362,0
8484205,0.7099,-0.5585,-0.2248,-0.3655,0.3408,-0.0467,-1.1772,0
8484705,0.7084,-0.5452,-0.2295,-0.3851,0.5379,0.2274,-1.3608,0
8485205,0.7056,-0.5381,-0.2312,-0.399,0.4897,0.4413,-1.1927,0
8485705,0.7068,-0.5317,-0.2351,-0.4032,0.6242,0.6747,-1.1718,0
8486205,-0.0119,-0.4629,0.3571,-0.8112,0.068,-0.8921,-1.0852,0
8486705,-0.0045,-0.4637,0.3707,-0.8047,-0.1952,-0.462,-0.9471,0
8487205,0.0055,-0.4617,0.3925,-0.7955,0.0084,-0.0752,-0.7183,0
8487705,0.02,-0.4596,0.4169,-0.7839,-0.1442,-0.0792,-0.8193,0
8488205,0.0348,-0.4564,0.4484,-0.7678,0.0863,0.0416,-0.4204,0
8488705,0.0524,-0.4539,0.4778,-0.7502,-0.0961,0.3081,-0.1791,0
8489205,0.0692,-0.4503,0.5053,-0.7329,-0.0113,0.1324,0.3044,0
8489705,0.0887,-0.4468,0.5253,-0.7187,-0.2498,-0.1488,-0.2264,0
8490205,0.1068,-0.4433,0.5497,-0.7,-0.4448,-0.0496,0.2738,0
8490705,0.1221,-0.4371,0.5718,-0.6835,-0.0157,0.0367,0.3662,0
8491205,0.1407,-0.4316,0.5877,-0.6697,-0.2931,-0.1333,0.4416,0
8491705,0.1547,-0.4271,0.604,-0.6549,0.1632,0.0115,0.8575,0
