SampleTimeFine,Quat_W,Quat_X,Quat_Y,Quat_Z,FreeAcc_X,FreeAcc_Y,FreeAcc_Z,Status
10496789,0.926,-0.3201,-0.0216,0.199,0.0287,-0.0277,-0.108,0
10497289,0.9257,-0.3209,-0.0226,0.1988,0.0782,-0.0206,-0.0963,0
10497789,0.9257,-0.321,-0.0236,0.1989,-0.0064,-0.0326,-0.1929,0
10498289,0.9255,-0.3211,-0.0238,0.1993,0.015,-0.0562,-0.1305,0
10498789,0.9254,-0.3212,-0.0237,0.1996,-0.0064,-0.0498,-0.0823,0
10499289,0.9254,-0.3212,-0.0235,0.1999,0.0308,-0.0797,-0.1077,0
10499789,0.9253,-0.3212,-0.0234,0.2002,0.1082,-0.0861,-0.093,0
10500289,0.9253,-0.321,-0.0234,0.2003,0.107,-0.0762,-0.0908,0
10500789,0.9255,-0.3206,-0.0233,0.2004,0.1061,-0.056,-0.0804,0
10501289,0.9256,-0.32,-0.0232,0.2006,0.1261,-0.0339,-0.1366,0
10501789,0.9259,-0.3194,-0.0226,0.2006,0.1387,-0.019,-0.088,0
10502289,0.9261,-0.3188,-0.0221,0.2002,-0.1107,-0.0612,-0.0448,0
10502789,0.9263,-0.3186,-0.0221,0.1997,-0.1024,-0.0065,0.0277,0
10503289,0.9261,-0.3195,-0.0236,0.1994,-0.6998,0.2183,0.1705,0
10503789,0.9224,-0.329,-0.0274,0.2006,0.1717,0.1968,-0.7169,0
10504289,0.9179,-0.3397,-0.0294,0.2029,0.4162,-0.1632,-0.4818,0
10504789,0.9156,-0.3393,-0.0319,0.2134,-0.4704,-0.4472,0.6039,0
10505289,0.9138,-0.3374,-0.0387,0.2229,-1.3044,0.1083,0.6755,0
10505789,0.9123,-0.3387,-0.0564,0.2232,-1.3861,0.0023,0.3268,0
10506289,0.9117,-0.3426,-0.0879,0.2088,-0.7572,0.2167,-0.4122,0
10506789,0.9102,-0.3458,-0.1294,0.1875,-0.2222,0.0147,-0.3527,0
10507289,0.9076,-0.3446,-0.1732,0.166,0.1905,-0.3491,-0.2251,0
10507789,0.9043,-0.3399,-0.2134,0.1456,1.2241,-0.6419,-0.0492,0
10508289,0.9021,-0.3291,-0.248,0.1279,1.1355,-0.3823,-0.1858,0
10508789,0.901,-0.3138,-0.2787,0.1098,1.4799,-0.4528,-0.1733,0
10509289,0.9001,-0.2989,-0.3033,0.0917,1.3187,-0.0543,-0.0366,0
10509789,0.8998,-0.2855,-0.3219,0.0727,0.8046,-0.2512,-0.2268,0
10510289,0.8993,-0.2741,-0.3366,0.0534,0.7498,-0.1798,0.0237,0
10510790,0.8984,-0.2647,-0.3491,0.0319,0.7435,-0.3882,0.3904,0
10511290,0.898,-0.256,-0.3576,0.0131,0.4745,-0.0413,-0.0082,0
10511790,0.8978,-0.2497,-0.3628,-0.0025,0.4953,-0.3207,0.1411,0
10512290,0.8981,-0.2459,-0.3644,-0.0157,0.0811,0.3865,-1.1687,0
10512790,0.8979,-0.2489,-0.3624,-0.0209,0.4632,0.1421,-0.892,0
10513290,0.8999,-0.2531,-0.355,-0.0118,-0.1681,0.1393,-1.6083,0
10513790,0.9002,-0.2668,-0.344,0.0088,0.6091,-0.0617,0.2127,0
10514290,0.9001,-0.2828,-0.3301,0.0293,0.708,-0.1354,0.2855,0
10514790,0.9018,-0.2958,-0.3105,0.0541,-0.4748,-0.3042,0.2909,0
10515290,0.9016,-0.3112,-0.2902,0.0781,0.7563,0.1992,-0.5506,0
10515790,0.8986,-0.3336,-0.2681,0.0969,0.8882,-0.4948,0.0592,0
10516290,0.8962,-0.3511,-0.2453,0.1153,0.0044,-0.417,0.7069,0
10516790,0.894,-0.3653,-0.2221,0.1339,0.0139,0.1069,-0.9661,0
10517290,0.8887,-0.3822,-0.2022,0.1527,0.2044,-0.4638,-0.771,0
10517790,0.8838,-0.3936,-0.1838,0.1738,0.3853,0.4298,0.128,0
10518290,0.8769,-0.4063,-0.1697,0.1927,0.2243,-0.8592,0.0599,0
10518790,0.8736,-0.4111,-0.1605,0.2049,0.094,-0.6144,0.8372,0
10519290,0.8727,-0.4124,-0.158,0.2083,-0.7516,-0.7054,0.6607,0
10519790,0.8739,-0.4083,-0.1656,0.2054,-0.2354,-0.7166,0.8698,0
10520290,0.877,-0.3994,-0.1802,0.1972,-0.1526,-0.4436,0.3806,0
10520790,0.8803,-0.3885,-0.2005,0.1842,0.1219,-0.4872,0.1349,0
10521290,0.8837,-0.3755,-0.2235,0.1678,0.4013,-0.4212,-0.088,0
10521790,0.8864,-0.3614,-0.2474,0.1498,0.4497,-0.1085,-0.0502,0
10522290,0.8881,-0.3481,-0.2701,0.1309,0.2624,-0.0581,-0.5174,0
10522790,0.888,-0.3381,-0.2911,0.1111,0.208,-0.1164,-0.0974,0
10523290,0.8886,-0.3265,-0.3086,0.0926,0.4367,-0.3056,0.0296,0
10523790,0.8892,-0.3137,-0.3243,0.0764,0.4388,-0.2294,-0.0956,0
10524290,0.8893,-0.3008,-0.339,0.0614,0.3946,0.0118,-0.1653,0
10524790,0.8888,-0.2903,-0.3517,0.0461,0.078,-0.0992,0.0455,0
10525290,0.8889,-0.2797,-0.3615,0.032,0.3199,-0.0279,-0.3638,0
10525790,0.8884,-0.2714,-0.3699,0.0182,0.3949,-0.1953,-0.4571,0
10526290,0.8873,-0.2658,-0.3769,0.0062,0.3285,-0.1321,-0.3834,0
10526790,0.8864,-0.2603,-0.3829,-0.0041,0.0944,-0.3731,-0.0382,0
10527290,0.8861,-0.255,-0.3868,-0.0111,0.2052,-0.1869,-0.0839,0
10527790,0.8859,-0.2528,-0.3886,-0.0154,0.1331,-0.2546,-0.3915,0
10528290,0.8862,-0.2525,-0.3882,-0.0158,0.289,0.4753,-1.1883,0
10528790,0.8853,-0.2588,-0.3862,-0.0103,0.282,-0.2933,0.1835,0
10529290,0.8852,-0.2652,-0.3822,0.003,0.0891,-0.3723,0.0062,0
10529790,0.8863,-0.2719,-0.3741,0.0234,0.2069,0.104,0.004,0
10530290,0.8862,-0.2829,-0.3639,0.0461,-0.0501,0.2974,-0.1388,0
10530790,0.8858,-0.2969,-0.3497,0.0703,0.546,-0.5605,0.0482,0
10531290,0.8845,-0.3134,-0.3328,0.0931,0.7164,0.0632,-0.6044,0
10531790,0.8821,-0.3336,-0.3115,0.1165,0.115,-0.1481,0.9231,0
10532290,0.8799,-0.3515,-0.2875,0.14,0.1636,-0.0206,-0.848,0
10532790,0.8755,-0.3725,-0.2611,0.1628,0.2159,-0.4095,-1.0832,0
10533290,0.8687,-0.3947,-0.2339,0.187,0.4934,-0.1783,0.2914,0
10533790,0.8624,-0.4117,-0.2099,0.2064,0.0857,-0.4918,-0.3347,0
10534290,0.857,-0.4251,-0.1889,0.2217,0.0659,-0.0207,0.0523,0
10534790,0.854,-0.4335,-0.1711,0.2312,-0.4899,0.1934,0.6255,0
10535290,0.8497,-0.4444,-0.1576,0.236,-0.5826,-0.6556,0.1392,0
10535790,0.8482,-0.4493,-0.1511,0.2364,0.2494,-0.0345,0.1889,0
10536290,0.8478,-0.4529,-0.1485,0.2326,-0.616,-0.9882,0.6606,0
10536790,0.8497,-0.4504,-0.1556,0.2255,-0.1255,-0.3115,0.5603,0
10537290,0.854,-0.4423,-0.1705,0.2143,-0.5406,-0.4479,0.3501,0
10537790,0.8592,-0.43,-0.1919,0.2001,-0.1523,-0.4627,0.2515,0
10538290,0.8645,-0.4144,-0.2167,0.1844,0.0374,-0.3459,-0.1686,0
10538790,0.8699,-0.3951,-0.2423,0.1686,0.1277,-0.385,-0.1992,0
10539290,0.8743,-0.3745,-0.2684,0.1525,0.0318,-0.0341,-0.4776,0
10539790,0.8764,-0.3555,-0.2953,0.1354,-0.0045,-0.1025,-0.3992,0
10540290,0.8781,-0.3346,-0.3216,0.1166,0.2414,-0.3558,0.064,0
10540790,0.8796,-0.3124,-0.3449,0.0986,0.3389,0.0903,-0.2633,0
10541290,0.8781,-0.2944,-0.3694,0.0768,0.9205,-0.16,-0.2664,0
10541790,0.8761,-0.2828,-0.3875,0.0472,0.9077,-0.2476,0.6306,0
10542290,0.8762,-0.2661,-0.4013,0.0202,0.6615,-0.0996,0.3874,0
10542790,0.8758,-0.2519,-0.4118,-0.0054,0.0173,-0.3694,-0.0072,0
10543290,0.8747,-0.2437,-0.418,-0.0273,0.5074,0.0013,-0.2671,0
10543790,0.8738,-0.2399,-0.4206,-0.0442,-0.0199,0.4021,-1.5007,0
10544290,0.8728,-0.2412,-0.4211,-0.051,-0.1157,0.1539,-0.7117,0
10544790,0.873,-0.2454,-0.419,-0.0456,0.3597,0.1474,-0.31,0
10545290,0.8739,-0.2551,-0.4126,-0.0322,0.1314,0.3812,-0.7452,0
10545790,0.8747,-0.27,-0.4023,-0.0134,-0.4085,0.5139,-0.7371,0
10546290,0.8753,-0.2912,-0.3859,0.0144,0.4901,-0.4083,0.8026,0
10546790,0.8761,-0.3156,-0.3617,0.0443,-0.0789,0.1357,-0.1343,0
10547290,0.8764,-0.3434,-0.3286,0.078,0.287,0.6339,-1.099,0
10547790,0.8686,-0.3887,-0.2883,0.1065,0.8694,-0.1847,0.8105,0
10548290,0.8563,-0.4378,-0.2347,0.1412,-0.2727,-0.1577,-0.5724,0
10548790,0.8374,-0.487,-0.1738,0.1773,-0.1779,0.9436,-0.8546,0
10549290,0.8078,-0.5362,-0.1118,0.2179,1.8506,0.2346,0.8197,0
10549790,0.7952,-0.5489,-0.045,0.2536,0.1131,-1.3618,-0.603,0
10550290,0.7843,-0.5465,-0.0049,0.2935,0.3333,-0.7492,0.7348,0
10550790,0.7839,-0.5307,0.0251,0.3214,0.0557,-1.0356,1.2835,0
10551290,0.7904,-0.5147,0.0515,0.3283,-1.4557,-0.4673,0.8797,0
10551790,0.7973,-0.5041,0.0637,0.3258,-1.4874,0.744,0.4684,0
10552290,0.8001,-0.5009,0.0637,0.3238,-1.6093,-0.0364,0.2089,0
10552790,0.8027,-0.5031,0.0569,0.3151,-0.4177,0.4652,-0.2154,0
10553290,0.803,-0.5109,0.0479,0.3031,-0.3692,-0.1119,0.3538,0
10553790,0.8055,-0.5215,0.03,0.2799,-0.7537,0.3081,0.7929,0
10554290,0.8118,-0.531,0.0005,0.2429,-1.2969,-0.477,0.6735,0
10554790,0.8253,-0.5239,-0.0476,0.2053,-0.7915,-0.6546,0.4659,0
10555290,0.8417,-0.4972,-0.1128,0.178,-0.8987,-0.9666,0.3698,0
10555790,0.8553,-0.4599,-0.1836,0.1525,0.0478,-1.2906,-0.4519,0
10556290,0.8725,-0.4598,-0.1463,-0.0771,0.7197,-0.142,-0.3717,0
10556790,0.8714,-0.4321,-0.2061,-0.1076,-0.1308,-0.4422,-0.8893,0
10557290,0.8664,-0.4038,-0.2582,-0.1405,1.7038,-0.4545,0.1847,0
10557790,0.8588,-0.3781,-0.2972,-0.1763,0.515,-0.1955,-0.1814,0
10558290,0.8541,-0.3516,-0.3233,-0.2059,0.7329,-0.1652,0.4949,0
10558790,0.8506,-0.3331,-0.3347,-0.2313,0.8414,0.105,-0.5822,0
10559290,0.8442,-0.3261,-0.3463,-0.2472,-0.0959,0.3069,-0.6401,0
10559790,0.841,-0.3238,-0.3538,-0.2503,0.6057,0.5375,-0.9685,0
10560290,0.8412,-0.328,-0.3533,-0.2448,0.5857,0.6668,-1.2038,0
10560791,0.8447,-0.3383,-0.3456,-0.2293,-0.0209,0.0176,0.0824,0
10561291,0.8506,-0.3476,-0.3357,-0.2074,-0.2736,-0.1757,-0.8332,0
10561791,0.856,-0.3628,-0.3201,-0.1819,0.7464,0.248,-0.8424,0
10562291,0.8612,-0.3813,-0.2982,-0.1547,0.1995,-0.4622,1.1116,0
10562791,0.867,-0.3992,-0.2705,-0.1259,0.0719,-0.2989,-0.9664,0
10563291,0.8697,-0.4207,-0.2389,-0.0975,0.5434,-0.3244,-0.1856,0
10563791,0.8702,-0.4452,-0.1996,-0.069,0.5655,-0.834,1.3783,0
10564291,0.8727,-0.463,-0.151,-0.0336,-0.1759,0.5573,-0.4973,0
10564791,0.8737,-0.476,-0.1008,0.0018,0.845,0.1624,-0.9183,0
10565291,0.8743,-0.482,-0.0435,0.0372,-0.8885,-0.8592,1.2488,0
10565791,0.8773,-0.4756,0.014,0.0631,-0.7371,1.3185,-0.0048,0
10566291,0.871,-0.4805,0.0648,0.0788,-1.229,0.0573,-0.1266,0
10566791,0.8587,-0.4906,0.1105,0.0988,0.4603,0.1758,-1.2187,0
10567291,0.8437,-0.4995,0.16,0.1143,-0.0879,-0.3108,-0.2258,0
10567791,0.8341,-0.4994,0.194,0.1312,-2.2253,0.1916,0.8357,0
10568291,0.8319,-0.4915,0.2112,0.1476,-0.6154,-0.3245,-0.8343,0
10568791,0.8341,-0.4897,0.2131,0.1379,-1.0766,0.4512,1.6988,0
10569291,0.8366,-0.491,0.2038,0.132,-0.566,0.5728,0.7507,0
10569791,0.8377,-0.4989,0.1858,0.1215,-0.4735,0.1726,0.8357,0
10570291,0.8381,-0.5118,0.1588,0.1024,-0.5728,0.0758,0.7221,0
10570791,0.8371,-0.5288,0.1188,0.0743,-0.5774,0.0726,0.3132,0
10571291,0.8387,-0.5395,0.0631,0.0383,-0.792,-0.2298,0.7847,0
10571791,0.8425,-0.5386,-0.0052,0.0045,-0.9401,-0.416,-0.1149,0
10572291,0.8433,-0.5309,-0.0773,-0.0302,0.0587,-0.857,-0.0433,0
10572791,0.8486,-0.5057,-0.143,-0.061,0.6233,-0.8577,-0.1109,0
10573291,0.853,-0.4742,-0.1981,-0.0912,0.2908,-0.1346,-0.6118,0
10573791,0.854,-0.4415,-0.2466,-0.122,-0.1476,-0.2352,-0.6315,0
10574291,0.8503,-0.4137,-0.2864,-0.1543,0.5107,0.2032,-0.6343,0
10574791,0.8464,-0.3871,-0.3164,-0.1834,0.3098,-0.5022,0.2753,0
10575291,0.8445,-0.361,-0.3357,-0.2094,0.6305,0.5161,-0.4004,0
10575791,0.8406,-0.3466,-0.3442,-0.2339,0.899,-0.2935,-0.2219,0
10576291,0.8366,-0.3469,-0.3436,-0.2484,1.0204,0.9643,-2.0327,0
10576791,0.8365,-0.3574,-0.3383,-0.2411,0.6198,0.4579,-1.0747,0
10577291,0.8404,-0.371,-0.3268,-0.2222,0.3155,-0.0447,-0.5184,0
10577791,0.8471,-0.3867,-0.3067,-0.1971,0.6686,0.1862,-0.1573,0
10578291,0.8505,-0.4098,-0.2798,-0.1745,-0.4407,-0.1496,0.6768,0
10578791,0.8559,-0.431,-0.2462,-0.1449,0.0218,0.3635,-0.6273,0
10579291,0.8583,-0.4541,-0.2095,-0.1153,1.0002,0.3466,-1.2637,0
10579791,0.8579,-0.4799,-0.1644,-0.0811,-0.09,0.3646,0.5027,0
10580291,0.8516,-0.5085,-0.1179,-0.0473,0.0822,-0.7646,-0.4751,0
10580791,0.8474,-0.5266,-0.0669,-0.0095,0.0437,-0.7527,-0.7213,0
10581291,0.8449,-0.5342,-0.0108,0.0263,0.2413,-0.219,0.417,0
10581791,0.8413,-0.5366,0.0393,0.0523,-0.6006,-0.1399,0.8247,0
10582291,0.8365,-0.5375,0.0812,0.0692,-0.7993,-0.5675,0.0948,0
10582791,0.8271,-0.5396,0.1245,0.0958,0.6107,0.0762,-0.6926,0
10583291,0.815,-0.5419,0.1655,0.1211,0.0255,-0.7045,0.7866,0
10583791,0.8134,-0.5273,0.1975,0.146,-2.1806,0.4658,0.456,0
10584291,0.8135,-0.5179,0.2098,0.1609,-0.4043,0.8935,0.6611,0
10584791,0.8168,-0.516,0.2067,0.1542,-1.1536,1.1273,0.1501,0
10585291,0.8183,-0.5229,0.1927,0.1407,-0.4792,0.4904,0.6563,0
10585791,0.8189,-0.5345,0.1712,0.1201,0.3188,-0.2319,1.0256,0
10586291,0.8191,-0.5489,0.1437,0.084,-0.9242,0.3435,0.6814,0
10586791,0.818,-0.5657,0.0973,0.0387,-1.5241,-0.0485,0.7331,0
10587291,0.8206,-0.5708,0.0279,-0.0074,-1.6522,-0.7115,1.2302,0
10587791,0.8286,-0.5558,-0.0481,-0.0472,-0.037,-0.9555,-0.3475,0
10588291,0.8355,-0.5306,-0.1166,-0.0829,0.7659,-0.9606,-0.3755,0
10588791,0.8419,-0.494,-0.1821,-0.1181,0.0939,-1.2484,0.1253,0
10589291,0.8443,-0.4516,-0.2439,-0.154,1.1025,-0.1809,-0.3313,0
10589791,0.8433,-0.4123,-0.2889,-0.188,0.4196,0.0014,0.3723,0
10590291,0.8381,-0.3845,-0.3168,-0.2224,1.222,-0.1753,-0.2384,0
10590791,0.8323,-0.369,-0.3288,-0.2513,0.1005,0.1209,-1.9009,0
10591291,0.8318,-0.3554,-0.3347,-0.2642,0.8177,1.1819,-2.2269,0
10591791,0.8323,-0.3514,-0.3345,-0.268,-0.0554,0.3818,-0.776,0
10592291,0.833,-0.3549,-0.3296,-0.2674,0.3134,0.4883,-0.5411,0
10592791,0.835,-0.3608,-0.3223,-0.262,0.2822,0.8038,-1.1849,0
10593291,0.8358,-0.377,-0.3112,-0.2497,-0.1057,-0.2086,0.0717,0
10593791,0.8414,-0.3945,-0.2915,-0.2269,-0.0823,-0.0494,-0.6707,0
10594291,0.8495,-0.4155,-0.2632,-0.191,1.8479,-0.1833,0.2938,0
10594791,0.8532,-0.4434,-0.2248,-0.1577,0.3028,-1.1185,-0.6785,0
10595291,0.8524,-0.4744,-0.1818,-0.124,-0.2028,0.0822,-0.2302,0
10595791,0.8494,-0.5044,-0.131,-0.0834,-0.0524,-0.5718,-0.4303,0
10596291,0.8425,-0.5313,-0.0815,-0.0355,0.7343,-1.3941,0.5681,0
10596791,0.8421,-0.5382,-0.035,0.0059,0.3804,0.7151,0.845,0
10597291,0.8426,-0.5363,0.0136,0.0476,0.8924,-0.6309,0.7931,0
10597791,0.8448,-0.5245,0.0702,0.079,-1.8886,0.3235,-0.7356,0
10598291,0.8379,-0.5206,0.1148,0.1174,1.3687,0.5878,1.0939,0
10598791,0.8274,-0.5137,0.1754,0.1441,-1.7006,-0.5044,-0.3815,0
10599291,0.8173,-0.5055,0.2112,0.1786,0.1562,-0.0763,-0.6804,0
10599791,0.8189,-0.4974,0.2261,0.1755,-1.3851,-0.7314,0.7565,0
10600291,0.8262,-0.4949,0.218,0.1576,-0.7134,1.0399,1.2407,0
10600791,0.8277,-0.5,0.2096,0.1449,-1.0427,0.7852,0.5817,0
10601291,0.825,-0.5127,0.1971,0.1326,0.0017,-0.127,1.2137,0
10601791,0.8232,-0.5301,0.1772,0.099,-0.9954,0.2611,0.2642,0
10602291,0.8175,-0.5555,0.1421,0.0542,-0.5746,-0.0093,0.9426,0
10602791,0.8224,-0.5633,0.0801,0.0038,-0.6221,-0.211,1.1986,0
10603291,0.8313,-0.5545,0.0072,-0.0389,-1.0527,-0.8494,-0.0264,0
10603791,0.8323,-0.5077,-0.1872,0.1203,0.8586,-0.2045,-0.574,0
10604291,0.8441,-0.4685,-0.245,0.0887,1.0055,-0.6345,-0.2167,0
10604791,0.8555,-0.4235,-0.2922,0.0579,0.87,0.0032,-1.7926,0
10605291,0.8618,-0.3872,-0.3261,0.0318,0.6665,0.5076,-0.6354,0
10605791,0.8658,-0.3589,-0.3487,0.0049,-0.2194,0.0774,-0.5513,0
10606291,0.8692,-0.3328,-0.3649,-0.0224,0.27,0.5182,0.4013,0
10606791,0.8734,-0.3093,-0.3731,-0.0482,-0.0096,-0.3103,0.9493,0
10607291,0.8754,-0.2964,-0.3762,-0.0655,0.7708,1.1473,-1.1414,0
