DeviceTag: 2,FirmwareVersion: 2.4.0,AppVersion: 2022.2.0,SyncStatus: Unknown (Synced/Un-synced),OutputRate: 60,FilterProfile: Unknown,Measurement Mode: Sensor fusion Mode - Extended (Euler),StartTime: 2023-08-10 15:40:40.362,© Movella Technologies B.V. 2005-2023
SampleTimeFine,Quat_W,Quat_X,Quat_Y,Quat_Z,FreeAcc_X,FreeAcc_Y,FreeAcc_Z,Status
18552712,1.0000,0.0013,-0.0012,-0.0013,-0.0091,-0.0129,-0.5380,0
18552879,1.0000,0.0012,-0.0012,-0.0016,-0.0146,-0.0140,-0.5291,0
18553046,1.0000,0.0010,-0.0012,-0.0018,-0.0195,0.0052,-0.5659,0
18553212,1.0000,0.0010,-0.0011,-0.0016,-0.0085,-0.0115,-0.5306,0
18553379,1.0000,0.0010,-0.0010,-0.0013,-0.0130,-0.0032,-0.5563,0
18553546,1.0000,0.0010,-0.0010,-0.0013,-0.0159,-0.0093,-0.5536,0
18553712,1.0000,0.0009,-0.0011,-0.0012,-0.0093,-0.0142,-0.5512,0
18553879,1.0000,0.0009,-0.0011,-0.0008,-0.0080,-0.0134,-0.5374,0
18554046,1.0000,0.0009,-0.0012,-0.0007,-0.0176,0.0012,-0.5448,0
18554212,1.0000,0.0008,-0.0012,-0.0005,-0.0173,0.0074,-0.5386,0
18554379,1.0000,0.0008,-0.0013,-0.0004,-0.0194,0.0075,-0.5568,0
18554546,1.0000,0.0009,-0.0013,-0.0003,-0.0110,-0.0142,-0.5551,0
18554712,1.0000,0.0009,-0.0014,-0.0001,-0.0262,0.0097,-0.5554,0
18554879,1.0000,0.0009,-0.0015,-0.0001,-0.0273,-0.0155,-0.5415,0
18555046,1.0000,0.0009,-0.0015,0.0000,-0.0233,-0.0053,-0.5529,0
18555212,1.0000,0.0009,-0.0016,-0.0001,-0.0101,0.0118,-0.5478,0
18555379,1.0000,0.0009,-0.0017,-0.0000,-0.0274,0.0006,-0.5584,0
18555546,1.0000,0.0009,-0.0017,-0.0002,-0.0304,0.0052,-0.5602,0
18555712,1.0000,0.0009,-0.0018,-0.0001,-0.0384,-0.0034,-0.5789,0
18555879,1.0000,0.0010,-0.0019,-0.0003,-0.0245,-0.0108,-0.5479,0
18556046,1.0000,0.0010,-0.0020,-0.0003,-0.0356,-0.0033,-0.5499,0
18556212,1.0000,0.0010,-0.0021,-0.0002,-0.0309,-0.0171,-0.5444,0
18556379,1.0000,0.0010,-0.0021,-0.0003,-0.0191,-0.0096,-0.5469,0
18556546,1.0000,0.0010,-0.0022,-0.0003,-0.0435,-0.0045,-0.5553,0
18556712,1.0000,0.0010,-0.0023,-0.0003,-0.0398,-0.0114,-0.5595,0
18556879,1.0000,0.0010,-0.0024,-0.0002,-0.0437,-0.0045,-0.5632,0
18557046,1.0000,0.0011,-0.0025,0.0001,-0.0323,-0.0116,-0.5425,0
18557212,1.0000,0.0011,-0.0026,0.0001,-0.0408,-0.0011,-0.5251,0
18557379,1.0000,0.0011,-0.0026,0.0003,-0.0369,-0.0048,-0.5442,0
18557546,1.0000,0.0011,-0.0027,0.0004,-0.0390,0.0072,-0.5366,0
18557712,1.0000,0.0011,-0.0028,0.0004,-0.0423,0.0031,-0.5300,0
18557879,1.0000,0.0012,-0.0028,0.0004,-0.0485,-0.0033,-0.5512,0
18558046,1.0000,0.0012,-0.0029,0.0005,-0.0450,-0.0115,-0.5444,0
18558212,1.0000,0.0012,-0.0030,0.0007,-0.0516,-0.0141,-0.5610,0
18558379,1.0000,0.0012,-0.0031,0.0008,-0.0584,-0.0083,-0.5550,0
18558546,1.0000,0.0012,-0.0032,0.0009,-0.0573,0.0032,-0.5503,0
18558712,1.0000,0.0012,-0.0032,0.0010,-0.0523,-0.0066,-0.5445,0
18558879,1.0000,0.0013,-0.0033,0.0010,-0.0476,-0.0086,-0.5431,0
18559046,1.0000,0.0013,-0.0034,0.0012,-0.0606,-0.0191,-0.5464,0
18559212,1.0000,0.0013,-0.0035,0.0014,-0.0655,-0.0149,-0.5440,0
18559379,1.0000,0.0013,-0.0036,0.0014,-0.0396,-0.0091,-0.5331,0
18559546,1.0000,0.0013,-0.0036,0.0016,-0.0626,-0.0104,-0.5452,0
18559712,1.0000,0.0014,-0.0037,0.0017,-0.0710,-0.0092,-0.5408,0
18559879,1.0000,0.0014,-0.0038,0.0019,-0.0599,0.0007,-0.5483,0
18560046,1.0000,0.0014,-0.0039,0.0020,-0.0780,-0.0240,-0.5343,0
18560212,1.0000,0.0014,-0.0039,0.0020,-0.0690,-0.0193,-0.5393,0
18560379,1.0000,0.0014,-0.0040,0.0020,-0.0724,-0.0188,-0.5379,0
18560546,1.0000,0.0014,-0.0041,0.0020,-0.0749,-0.0153,-0.5433,0
18560712,1.0000,0.0014,-0.0042,0.0020,-0.0658,-0.0053,-0.5372,0
18560879,1.0000,0.0014,-0.0042,0.0022,-0.0648,-0.0118,-0.5334,0
18561046,1.0000,0.0015,-0.0043,0.0021,-0.0786,-0.0183,-0.5510,0
18561212,1.0000,0.0015,-0.0044,0.0023,-0.0881,0.0014,-0.5688,0
18561379,1.0000,0.0015,-0.0045,0.0023,-0.0967,-0.0288,-0.5665,0
18561546,1.0000,0.0015,-0.0046,0.0022,-0.0912,-0.0236,-0.5397,0
18561712,1.0000,0.0015,-0.0046,0.0023,-0.0787,-0.0250,-0.5589,0
18561879,1.0000,0.0016,-0.0047,0.0023,-0.0803,-0.0202,-0.5492,0
18562046,1.0000,0.0016,-0.0048,0.0024,-0.0677,-0.0108,-0.5547,0
18562212,1.0000,0.0016,-0.0049,0.0025,-0.0831,-0.0064,-0.5480,0
18562379,1.0000,0.0016,-0.0049,0.0025,-0.0810,-0.0116,-0.5484,0
18562546,1.0000,0.0016,-0.0050,0.0026,-0.0965,-0.0124,-0.5467,0
18562712,1.0000,0.0016,-0.0051,0.0027,-0.0866,-0.0214,-0.5617,0
18562879,1.0000,0.0016,-0.0051,0.0027,-0.0907,-0.0141,-0.5505,0
18563046,1.0000,0.0016,-0.0052,0.0028,-0.0962,-0.0198,-0.5272,0
18563212,1.0000,0.0017,-0.0053,0.0029,-0.0927,-0.0160,-0.5539,0
18563379,1.0000,0.0017,-0.0054,0.0030,-0.1001,-0.0041,-0.5485,0
18563546,1.0000,0.0017,-0.0054,0.0030,-0.1072,-0.0114,-0.5485,0
18563712,1.0000,0.0017,-0.0055,0.0030,-0.0901,-0.0001,-0.5565,0
18563879,1.0000,0.0017,-0.0056,0.0032,-0.1015,-0.0076,-0.5484,0
18564046,1.0000,0.0017,-0.0056,0.0032,-0.1021,-0.0242,-0.5443,0
18564212,1.0000,0.0017,-0.0057,0.0033,-0.1025,-0.0108,-0.5485,0
18564379,1.0000,0.0017,-0.0058,0.0033,-0.1013,-0.0156,-0.5478,0
18564546,1.0000,0.0018,-0.0058,0.0034,-0.1065,-0.0229,-0.5664,0
18564712,1.0000,0.0018,-0.0059,0.0035,-0.0957,-0.0044,-0.5757,0
18564879,1.0000,0.0018,-0.0060,0.0035,-0.0976,-0.0205,-0.5575,0
18565046,1.0000,0.0018,-0.0061,0.0035,-0.0993,-0.0264,-0.5377,0
18565212,1.0000,0.0018,-0.0061,0.0037,-0.1010,-0.0134,-0.5367,0
18565379,1.0000,0.0018,-0.0062,0.0038,-0.1018,-0.0181,-0.5292,0
18565546,1.0000,0.0018,-0.0063,0.0040,-0.1059,-0.0207,-0.5397,0
18565712,1.0000,0.0018,-0.0063,0.0039,-0.1098,-0.0220,-0.5434,0
18565879,1.0000,0.0018,-0.0064,0.0040,-0.1098,-0.0171,-0.5501,0
18566046,1.0000,0.0019,-0.0065,0.0041,-0.1275,-0.0194,-0.5548,0
18566212,1.0000,0.0019,-0.0065,0.0041,-0.1150,-0.0134,-0.5501,0
18566379,1.0000,0.0019,-0.0066,0.0042,-0.1109,-0.0164,-0.5514,0
18566546,1.0000,0.0019,-0.0067,0.0042,-0.1029,-0.0282,-0.5390,0
18566712,1.0000,0.0019,-0.0067,0.0041,-0.1065,-0.0175,-0.5446,0
18566879,1.0000,0.0019,-0.0068,0.0042,-0.1256,-0.0357,-0.5545,0
18567046,1.0000,0.0019,-0.0068,0.0043,-0.1246,-0.0201,-0.5553,0
18567212,1.0000,0.0019,-0.0069,0.0043,-0.1287,-0.0227,-0.5480,0
18567379,1.0000,0.0019,-0.0069,0.0044,-0.1092,-0.0161,-0.5561,0
18567546,1.0000,0.0019,-0.0070,0.0044,-0.1152,-0.0099,-0.5451,0
18567712,1.0000,0.0020,-0.0071,0.0044,-0.1223,-0.0157,-0.5216,0
18567879,1.0000,0.0020,-0.0071,0.0044,-0.1152,-0.0320,-0.5316,0
18568046,1.0000,0.0020,-0.0072,0.0045,-0.1288,-0.0168,-0.5426,0
18568212,1.0000,0.0020,-0.0072,0.0045,-0.1270,-0.0218,-0.5527,0
18568379,1.0000,0.0020,-0.0073,0.0046,-0.1319,-0.0277,-0.5481,0
18568546,1.0000,0.0020,-0.0073,0.0047,-0.1354,-0.0265,-0.5271,0
18568713,1.0000,0.0020,-0.0074,0.0048,-0.1201,-0.0135,-0.5325,0
18568879,1.0000,0.0020,-0.0074,0.0048,-0.1359,-0.0141,-0.5380,0
18569046,1.0000,0.0021,-0.0075,0.0048,-0.1227,-0.0171,-0.5467,0
18569213,1.0000,0.0021,-0.0075,0.0048,-0.1356,-0.0419,-0.5429,0
18569379,1.0000,0.0021,-0.0075,0.0048,-0.1367,-0.0278,-0.5492,0
18569546,1.0000,0.0021,-0.0076,0.0049,-0.1195,-0.0194,-0.5409,0
18569713,1.0000,0.0021,-0.0076,0.0050,-0.1352,-0.0322,-0.5455,0
18569879,1.0000,0.0021,-0.0077,0.0051,-0.1249,-0.0192,-0.5320,0
18570046,1.0000,0.0021,-0.0077,0.0051,-0.1355,-0.0301,-0.5184,0
18570213,1.0000,0.0021,-0.0078,0.0052,-0.1417,-0.0251,-0.5542,0
18570379,1.0000,0.0021,-0.0078,0.0053,-0.1464,-0.0134,-0.5424,0
18570546,1.0000,0.0021,-0.0079,0.0053,-0.1319,-0.0115,-0.5649,0
18570713,1.0000,0.0021,-0.0079,0.0054,-0.1423,-0.0325,-0.5612,0
18570879,1.0000,0.0021,-0.0080,0.0055,-0.1490,-0.0291,-0.5389,0
18571046,1.0000,0.0021,-0.0080,0.0056,-0.1268,-0.0375,-0.5372,0
18571213,0.9999,0.0021,-0.0080,0.0056,-0.1266,-0.0205,-0.5384,0
18571379,0.9999,0.0022,-0.0081,0.0056,-0.1419,-0.0329,-0.5245,0
18571546,0.9999,0.0022,-0.0081,0.0058,-0.1387,-0.0104,-0.5507,0
18571713,0.9999,0.0022,-0.0082,0.0059,-0.1492,-0.0228,-0.5644,0
18571879,0.9999,0.0022,-0.0082,0.0058,-0.1452,-0.0274,-0.5365,0
18572046,0.9999,0.0022,-0.0083,0.0060,-0.1501,-0.0314,-0.5574,0
18572213,0.9999,0.0022,-0.0083,0.0060,-0.1630,-0.0173,-0.5614,0
18572379,0.9999,0.0022,-0.0084,0.0062,-0.1434,-0.0248,-0.5509,0
18572546,1.0000,0.0008,-0.0003,0.0022,0.0124,0.0100,-0.5626,0
18572713,1.0000,0.0008,-0.0003,0.0023,0.0024,0.0048,-0.5426,0
18572879,1.0000,0.0008,-0.0003,0.0023,-0.0075,-0.0121,-0.5481,0
18573046,1.0000,0.0008,-0.0004,0.0023,-0.0074,-0.0121,-0.5415,0
18573213,1.0000,0.0008,-0.0004,0.0023,-0.0065,0.0193,-0.5477,0
18573379,1.0000,0.0008,-0.0004,0.0023,-0.0016,0.0143,-0.5635,0
18573546,1.0000,0.0008,-0.0004,0.0023,0.0096,0.0145,-0.5258,0
18573713,1.0000,0.0008,-0.0004,0.0023,0.0246,0.0109,-0.5441,0
18573879,1.0000,0.0008,-0.0004,0.0023,0.0224,-0.0006,-0.5397,0
18574046,1.0000,0.0008,-0.0004,0.0023,0.0204,-0.0271,-0.5370,0
18574213,1.0000,0.0008,-0.0004,0.0024,0.0041,-0.0169,-0.5530,0
18574379,1.0000,0.0008,-0.0004,0.0024,-0.0175,0.0059,-0.5538,0
18574546,1.0000,0.0008,-0.0004,0.0024,-0.0125,0.0053,-0.5530,0
18574713,1.0000,0.0008,-0.0004,0.0024,-0.0001,0.0234,-0.5241,0
18574879,1.0000,0.0008,-0.0004,0.0024,-0.0119,-0.0010,-0.5245,0
18575046,1.0000,0.0008,-0.0004,0.0024,-0.0048,-0.0165,-0.5396,0
18575213,1.0000,0.0008,-0.0004,0.0024,-0.0109,-0.0031,-0.5531,0
18575379,1.0000,0.0008,-0.0004,0.0024,-0.0170,-0.0036,-0.5681,0
18575546,1.0000,0.0008,-0.0003,0.0024,-0.0029,0.0070,-0.5571,0
18575713,1.0000,0.0008,-0.0003,0.0024,-0.0043,0.0082,-0.5602,0
18575879,1.0000,0.0008,-0.0003,0.0024,0.0021,0.0109,-0.5162,0
18576046,1.0000,0.0008,-0.0003,0.0025,0.0042,-0.0222,-0.5372,0
18576213,1.0000,0.0008,-0.0003,0.0025,-0.0037,-0.0104,-0.5334,0
18576379,1.0000,0.0008,-0.0003,0.0025,-0.0002,0.0005,-0.5415,0
18576546,1.0000,0.0008,-0.0003,0.0025,-0.0151,0.0103,-0.5548,0
18576713,1.0000,0.0008,-0.0003,0.0025,-0.0079,0.0055,-0.5494,0
18576879,1.0000,0.0008,-0.0003,0.0025,0.0096,-0.0041,-0.5449,0
18577046,1.0000,0.0008,-0.0004,0.0025,0.0039,-0.0036,-0.5379,0
18577213,1.0000,0.0008,-0.0004,0.0025,0.0170,0.0044,-0.5576,0
18577379,1.0000,0.0008,-0.0003,0.0025,-0.0002,0.0038,-0.5425,0
18577546,1.0000,0.0008,-0.0004,0.0025,-0.0058,0.0007,-0.5515,0
18577713,1.0000,0.0008,-0.0003,0.0025,-0.0057,0.0074,-0.5545,0
18577879,1.0000,0.0008,-0.0003,0.0025,0.0048,0.0049,-0.5608,0
18578046,1.0000,0.0008,-0.0003,0.0025,0.0113,0.0045,-0.5481,0
18578213,1.0000,0.0008,-0.0003,0.0025,-0.0051,0.0029,-0.5584,0
18578379,1.0000,0.0008,-0.0003,0.0025,-0.0018,0.0043,-0.5277,0
18578546,1.0000,0.0008,-0.0003,0.0026,0.0057,0.0076,-0.5527,0
18578713,1.0000,0.0008,-0.0003,0.0026,-0.0018,0.0048,-0.5650,0
18578879,1.0000,0.0008,-0.0003,0.0026,-0.0121,0.0074,-0.5405,0
18579046,1.0000,0.0008,-0.0003,0.0026,-0.0063,-0.0134,-0.5404,0
18579213,1.0000,0.0008,-0.0003,0.0023,0.0055,-0.0112,-0.5269,0
18579379,1.0000,0.0008,-0.0003,0.0022,-0.0048,-0.0123,-0.5324,0
18579546,1.0000,0.0008,-0.0003,0.0021,-0.0034,-0.0004,-0.5158,0
18579713,1.0000,0.0008,-0.0003,0.0020,0.0003,-0.0080,-0.5494,0
18579879,1.0000,0.0008,-0.0003,0.0019,-0.0117,-0.0147,-0.5406,0
18580046,1.0000,0.0009,-0.0003,0.0019,-0.0093,0.0056,-0.5424,0
18580213,1.0000,0.0009,-0.0003,0.0018,0.0012,-0.0102,-0.5623,0
18580379,1.0000,0.0009,-0.0003,0.0018,-0.0053,0.0006,-0.5497,0
18580546,1.0000,0.0009,-0.0003,0.0018,0.0075,0.0076,-0.5535,0
18580713,1.0000,0.0009,-0.0003,0.0017,0.0062,0.0041,-0.5578,0
18580879,1.0000,0.0009,-0.0003,0.0017,0.0014,-0.0198,-0.5488,0
18581046,1.0000,0.0009,-0.0003,0.0017,-0.0005,0.0103,-0.5478,0
18581213,1.0000,0.0009,-0.0003,0.0016,-0.0038,-0.0091,-0.5462,0
18581379,1.0000,0.0009,-0.0003,0.0016,-0.0106,-0.0099,-0.5557,0
18581546,1.0000,0.0009,-0.0002,0.0016,0.0061,-0.0076,-0.5316,0
18581713,1.0000,0.0009,-0.0003,0.0015,0.0077,0.0037,-0.5307,0
18581879,1.0000,0.0009,-0.0002,0.0015,-0.0047,-0.0036,-0.5329,0
18582046,1.0000,0.0009,-0.0002,0.0014,0.0106,-0.0013,-0.5499,0
18582213,1.0000,0.0009,-0.0002,0.0014,-0.0009,0.0015,-0.5492,0
18582379,1.0000,0.0009,-0.0002,0.0014,-0.0081,-0.0024,-0.5548,0
18582546,1.0000,0.0009,-0.0002,0.0014,-0.0040,-0.0006,-0.5469,0
18582713,1.0000,0.0009,-0.0002,0.0013,-0.0073,-0.0123,-0.5351,0
18582879,1.0000,0.0009,-0.0002,0.0013,0.0112,0.0007,-0.5404,0
18583046,1.0000,0.0009,-0.0002,0.0013,-0.0113,-0.0016,-0.5527,0
18583213,1.0000,0.0009,-0.0002,0.0012,-0.0041,0.0006,-0.5508,0
18583379,1.0000,0.0009,-0.0002,0.0013,0.0030,0.0023,-0.5511,0
18583546,1.0000,0.0009,-0.0002,0.0013,0.0101,-0.0162,-0.5457,0
18583713,1.0000,0.0009,-0.0002,0.0012,-0.0057,-0.0219,-0.5626,0
18583879,1.0000,0.0009,-0.0002,0.0012,-0.0096,-0.0005,-0.5363,0
18584046,1.0000,0.0009,-0.0002,0.0012,-0.0046,-0.0169,-0.5406,0
18584213,1.0000,0.0009,-0.0002,0.0011,0.0134,-0.0007,-0.5194,0
18584379,1.0000,0.0009,-0.0002,0.0011,0.0022,-0.0151,-0.5530,0
18584546,1.0000,0.0009,-0.0002,0.0011,-0.0006,-0.0060,-0.5373,0
18584713,1.0000,0.0009,-0.0002,0.0011,-0.0070,-0.0069,-0.5248,0
18584879,1.0000,0.0009,-0.0002,0.0010,0.0121,-0.0040,-0.5066,0
18585046,1.0000,0.0009,-0.0001,0.0010,0.0265,0.0058,-0.5317,0
18585213,1.0000,0.0010,-0.0001,0.0010,0.0194,0.0002,-0.5531,0
18585380,1.0000,0.0010,-0.0001,0.0010,-0.0002,0.0094,-0.5777,0
18585546,1.0000,0.0010,-0.0001,0.0010,-0.0202,-0.0077,-0.5975,0
18585713,1.0000,0.0010,-0.0001,0.0010,-0.0114,-0.0058,-0.5492,0
18585880,1.0000,0.0010,-0.0001,0.0009,0.0002,0.0029,-0.5072,0
18586046,1.0000,0.0010,-0.0001,0.0009,0.0195,-0.0090,-0.5369,0
18586213,1.0000,0.0010,-0.0000,0.0009,0.0011,-0.0155,-0.5571,0
18586380,1.0000,0.0010,-0.0000,0.0009,-0.0075,-0.0090,-0.5735,0
18586546,1.0000,0.0010,-0.0000,0.0008,-0.0277,0.0044,-0.5772,0
18586713,1.0000,0.0010,-0.0000,0.0008,-0.0136,0.0055,-0.5751,0
18586880,1.0000,0.0010,-0.0001,0.0008,-0.0175,0.0090,-0.5466,0
18587046,1.0000,0.0010,-0.0000,0.0008,0.0117,0.0004,-0.5142,0
18587213,1.0000,0.0010,-0.0000,0.0008,0.0279,0.0046,-0.5031,0
18587380,1.0000,0.0010,-0.0000,0.0008,0.0296,-0.0066,-0.5630,0
18587546,1.0000,0.0010,-0.0000,0.0007,-0.0191,-0.0133,-0.5438,0
18587713,1.0000,0.0010,-0.0000,0.0007,-0.0267,-0.0022,-0.5687,0
18587880,1.0000,0.0010,-0.0000,0.0007,-0.0221,0.0077,-0.5785,0
18588046,1.0000,0.0010,-0.0000,0.0007,-0.0164,-0.0062,-0.5431,0
18588213,1.0000,0.0010,-0.0000,0.0007,0.0230,0.0055,-0.5237,0
18588380,1.0000,0.0009,-0.0000,0.0007,0.0315,-0.0048,-0.5216,0
18588546,1.0000,0.0010,-0.0000,0.0007,0.0144,-0.0085,-0.5474,0
18588713,1.0000,0.0010,-0.0000,0.0006,-0.0032,-0.0017,-0.5612,0
18588880,1.0000,0.0010,-0.0000,0.0006,-0.0089,-0.0064,-0.5480,0
18589046,1.0000,0.0010,-0.0000,0.0006,-0.0140,0.0066,-0.5584,0
18589213,1.0000,0.0010,-0.0000,0.0006,-0.0111,-0.0079,-0.5484,0
18589380,1.0000,0.0010,-0.0000,0.0006,-0.0025,-0.0103,-0.5432,0
18589546,1.0000,0.0010,-0.0000,0.0005,0.0165,-0.0099,-0.5374,0
18589713,1.0000,0.0010,-0.0000,0.0005,0.0053,-0.0158,-0.5337,0
18589880,1.0000,0.0010,0.0000,0.0005,0.0009,-0.0026,-0.5349,0
18590046,1.0000,0.0009,0.0000,0.0005,-0.0087,0.0152,-0.5461,0
18590213,1.0000,0.0009,-0.0000,0.0005,-0.0041,-0.0048,-0.5694,0
18590380,1.0000,0.0009,-0.0000,0.0005,0.0057,-0.0078,-0.5245,0
18590546,1.0000,0.0009,-0.0000,0.0005,0.0183,0.0020,-0.5271,0
18590713,1.0000,0.0009,-0.0000,0.0004,0.0248,-0.0002,-0.5263,0
18590880,1.0000,0.0009,0.0000,0.0004,-0.0001,0.0075,-0.5292,0
18591046,1.0000,0.0009,0.0000,0.0004,-0.0028,-0.0042,-0.5404,0
18591213,1.0000,0.0009,0.0000,0.0004,-0.0137,-0.0063,-0.5635,0
18591380,1.0000,0.0009,0.0000,0.0004,0.0067,-0.0190,-0.5528,0
18591546,1.0000,0.0009,-0.0000,0.0003,-0.0031,0.0042,-0.5356,0
18591713,1.0000,0.0009,0.0000,0.0003,0.0231,-0.0021,-0.5300,0
18591880,1.0000,0.0009,0.0000,0.0003,0.0158,0.0150,-0.5482,0
18592046,1.0000,0.0009,0.0000,0.0003,0.0024,-0.0001,-0.5643,0
18592213,1.0000,0.0009,0.0000,0.0003,-0.0120,0.0054,-0.5667,0
18592380,1.0000,0.0009,0.0000,0.0003,-0.0198,-0.0149,-0.5567,0
18592546,1.0000,0.0009,-0.0003,0.0003,-0.0114,0.0119,-0.5436,0
18592713,1.0000,0.0009,-0.0003,0.0003,0.0105,0.0053,-0.5114,0
18592880,1.0000,0.0009,-0.0003,0.0003,0.0240,-0.0022,-0.5563,0
18593046,1.0000,0.0009,-0.0003,0.0003,0.0162,-0.0104,-0.5328,0
18593213,1.0000,0.0009,-0.0003,0.0003,-0.0121,0.0028,-0.5245,0
18593380,1.0000,0.0009,-0.0002,0.0003,-0.0193,-0.0097,-0.5534,0
18593546,1.0000,0.0009,-0.0002,0.0002,-0.0100,-0.0141,-0.5257,0
18593713,1.0000,0.0009,-0.0002,0.0002,-0.0204,0.0078,-0.5534,0
18593880,1.0000,0.0009,-0.0002,0.0002,-0.0219,0.0148,-0.5494,0
18594046,1.0000,0.0009,-0.0003,0.0002,-0.0038,-0.0007,-0.4983,0
18594213,1.0000,0.0009,-0.0003,0.0002,0.0117,-0.0205,-0.5527,0
18594380,1.0000,0.0009,-0.0003,0.0002,0.0122,-0.0130,-0.5495,0
18594546,1.0000,0.0009,-0.0003,0.0002,0.0064,0.0041,-0.5126,0
18594713,1.0000,0.0009,-0.0003,0.0002,-0.0055,-0.0003,-0.5640,0
18594880,1.0000,0.0009,-0.0003,0.0001,-0.0194,-0.0039,-0.5655,0
18595046,1.0000,0.0009,-0.0003,0.0001,0.0070,0.0113,-0.5205,0
18595213,1.0000,0.0009,-0.0003,0.0001,0.0013,0.0181,-0.5527,0
18595380,1.0000,0.0009,-0.0003,0.0001,0.0143,-0.0036,-0.5218,0
18595546,1.0000,0.0009,-0.0003,0.0001,0.0099,0.0082,-0.5348,0
18595713,1.0000,0.0009,-0.0003,0.0001,-0.0082,-0.0056,-0.5381,0
18595880,1.0000,0.0009,-0.0003,0.0001,-0.0261,-0.0069,-0.5473,0
18596046,1.0000,0.0009,-0.0002,0.0001,-0.0145,-0.0041,-0.5737,0
18596213,1.0000,0.0009,-0.0002,0.0001,0.0016,-0.0056,-0.5452,0
18596380,1.0000,0.0009,-0.0002,0.0001,0.0075,-0.0145,-0.5229,0
18596546,1.0000,0.0009,-0.0002,0.0001,-0.0041,0.0128,-0.5496,0
18596713,1.0000,0.0009,-0.0002,0.0001,0.0007,0.0030,-0.5476,0
18596880,1.0000,0.0009,-0.0002,0.0000,0.0109,-0.0047,-0.5346,0
18597046,1.0000,0.0009,-0.0002,-0.0000,-0.0157,0.0086,-0.5519,0
18597213,1.0000,0.0009,-0.0002,-0.0000,-0.0251,-0.0112,-0.5616,0
18597380,1.0000,0.0009,-0.0002,-0.0000,-0.0141,-0.0004,-0.5629,0
18597546,1.0000,0.0009,-0.0002,-0.0001,0.0006,-0.0075,-0.5620,0
18597713,1.0000,0.0009,-0.0002,-0.0001,-0.0104,0.0072,-0.5255,0
18597880,1.0000,0.0009,-0.0002,-0.0001,0.0073,0.0146,-0.5411,0
18598046,1.0000,0.0009,-0.0002,-0.0001,-0.0053,0.0032,-0.5545,0
18598213,1.0000,0.0009,-0.0002,-0.0001,-0.0033,-0.0098,-0.5670,0
18598380,1.0000,0.0009,-0.0002,-0.0001,-0.0072,-0.0053,-0.5614,0
18598546,1.0000,0.0009,-0.0002,-0.0001,0.0048,-0.0053,-0.5530,0
18598713,1.0000,0.0009,-0.0002,-0.0001,0.0052,0.0060,-0.5317,0
18598880,1.0000,0.0009,-0.0002,-0.0001,0.0136,-0.0019,-0.5410,0
18599046,1.0000,0.0009,-0.0002,-0.0001,-0.0102,-0.0199,-0.5157,0
18599213,1.0000,0.0009,-0.0002,-0.0001,-0.0083,0.0019,-0.5478,0
18599380,1.0000,0.0009,-0.0002,-0.0001,-0.0105,-0.0073,-0.5404,0
18599546,1.0000,0.0009,-0.0002,-0.0001,-0.0014,-0.0134,-0.5598,0
18599713,1.0000,0.0009,-0.0002,-0.0001,0.0064,-0.0000,-0.5470,0
18599880,1.0000,0.0009,-0.0002,-0.0002,-0.0065,0.0054,-0.5378,0
18600046,1.0000,0.0009,-0.0002,-0.0002,0.0046,0.0119,-0.5595,0
18600213,1.0000,0.0009,-0.0002,-0.0002,-0.0036,0.0102,-0.5506,0
18600380,1.0000,0.0009,-0.0002,-0.0002,-0.0209,0.0090,-0.5497,0
18600546,1.0000,0.0009,-0.0002,-0.0002,-0.0106,-0.0003,-0.5606,0
18600713,1.0000,0.0009,-0.0002,-0.0002,-0.0173,-0.0182,-0.5390,0
18600880,1.0000,0.0009,-0.0003,-0.0002,0.0079,-0.0080,-0.5242,0
18601046,1.0000,0.0009,-0.0003,-0.0002,0.0048,0.0074,-0.5343,0
18601213,1.0000,0.0009,-0.0003,-0.0002,0.0024,0.0126,-0.5200,0
18601380,1.0000,0.0009,-0.0003,-0.0002,-0.0036,-0.0058,-0.5391,0
18601546,1.0000,0.0009,-0.0002,-0.0002,-0.0062,0.0007,-0.5401,0
18601713,1.0000,0.0009,-0.0002,-0.0002,-0.0021,-0.0206,-0.5538,0
18601880,1.0000,0.0009,-0.0002,-0.0002,-0.0286,-0.0169,-0.5523,0
18602047,1.0000,0.0009,-0.0002,-0.0002,-0.0028,0.0034,-0.5327,0
18602213,1.0000,0.0009,-0.0002,-0.0002,0.0007,-0.0006,-0.5334,0
18602380,1.0000,0.0009,-0.0002,-0.0002,0.0059,0.0118,-0.5381,0
18602547,1.0000,0.0009,-0.0002,-0.0002,-0.0137,-0.0166,-0.5391,0
18602713,1.0000,0.0009,-0.0002,-0.0002,-0.0174,0.0024,-0.5430,0
18602880,1.0000,0.0009,-0.0002,-0.0002,-0.0103,-0.0227,-0.5412,0
18603047,1.0000,0.0009,-0.0002,-0.0002,-0.0175,-0.0016,-0.5426,0
18603213,1.0000,0.0009,-0.0002,-0.0002,0.0027,-0.0047,-0.5506,0
18603380,1.0000,0.0009,-0.0002,-0.0002,0.0197,0.0070,-0.5430,0
18603547,1.0000,0.0009,-0.0002,-0.0002,-0.0011,0.0188,-0.5388,0
18603713,1.0000,0.0009,-0.0002,-0.0002,0.0027,0.0119,-0.5383,0
18603880,1.0000,0.0009,-0.0002,-0.0002,-0.0153,0.0024,-0.5422,0
18604047,1.0000,0.0009,-0.0002,-0.0003,0.0028,-0.0037,-0.5752,0
18604213,1.0000,0.0009,-0.0002,-0.0003,-0.0113,-0.0020,-0.5554,0
18604380,1.0000,0.0009,-0.0002,-0.0003,0.0100,-0.0003,-0.5434,0
18604547,1.0000,0.0009,-0.0002,-0.0003,-0.0040,0.0047,-0.5589,0
18604713,1.0000,0.0009,-0.0002,-0.0003,0.0047,-0.0003,-0.5477,0
18604880,1.0000,0.0009,-0.0002,-0.0003,0.0114,0.0054,-0.5354,0
18605047,1.0000,0.0009,-0.0002,-0.0003,-0.0028,-0.0097,-0.5515,0
18605213,1.0000,0.0009,-0.0002,-0.0003,-0.0024,0.0004,-0.5458,0
18605380,1.0000,0.0009,-0.0002,-0.0003,0.0074,-0.0089,-0.5484,0
18605547,1.0000,0.0009,-0.0002,-0.0003,-0.0041,-0.0096,-0.5488,0
18605713,1.0000,0.0009,-0.0002,-0.0003,-0.0130,0.0060,-0.5301,0
18605880,1.0000,0.0009,-0.0002,-0.0003,-0.0047,0.0016,-0.5464,0
18606047,1.0000,0.0009,-0.0002,-0.0003,-0.0021,-0.0067,-0.5429,0
18606213,1.0000,0.0009,-0.0002,-0.0003,0.0003,-0.0031,-0.5364,0
18606380,1.0000,0.0009,-0.0002,-0.0003,-0.0097,0.0047,-0.5418,0
18606547,1.0000,0.0009,-0.0002,-0.0003,0.0008,0.0013,-0.5291,0
18606713,1.0000,0.0009,-0.0002,-0.0003,0.0030,-0.0016,-0.5385,0
18606880,1.0000,0.0009,-0.0002,-0.0003,-0.0092,0.0148,-0.5461,0
18607047,1.0000,0.0009,-0.0002,-0.0003,-0.0065,0.0015,-0.5374,0
18607213,1.0000,0.0009,-0.0002,-0.0004,0.0007,0.0040,-0.5342,0
18607380,1.0000,0.0009,-0.0002,-0.0004,0.0048,0.0076,-0.5426,0
18607547,1.0000,0.0009,-0.0002,-0.0004,-0.0098,-0.0033,-0.5319,0
18607713,1.0000,0.0009,-0.0002,-0.0004,-0.0042,-0.0045,-0.5270,0
18607880,1.0000,0.0009,-0.0002,-0.0004,0.0011,-0.0018,-0.5504,0
18608047,1.0000,0.0009,-0.0002,-0.0004,-0.0234,0.0028,-0.5537,0
18608213,1.0000,0.0009,-0.0002,-0.0004,-0.0175,-0.0078,-0.5406,0
18608380,1.0000,0.0009,-0.0002,-0.0004,-0.0035,0.0070,-0.5509,0
18608547,1.0000,0.0009,-0.0002,-0.0004,0.0128,0.0020,-0.5422,0
18608713,1.0000,0.0009,-0.0002,-0.0004,0.0036,0.0128,-0.5266,0
18608880,1.0000,0.0009,-0.0002,-0.0004,-0.0018,0.0097,-0.5465,0
18609047,1.0000,0.0009,-0.0002,-0.0004,-0.0179,-0.0151,-0.5492,0
18609213,1.0000,0.0009,-0.0002,-0.0004,-0.0268,-0.0053,-0.5527,0
18609380,1.0000,0.0009,-0.0002,-0.0004,-0.0183,-0.0103,-0.5397,0
18609547,1.0000,0.0009,-0.0002,-0.0004,0.0020,0.0094,-0.5435,0
18609713,1.0000,0.0009,-0.0002,-0.0004,0.0065,0.0071,-0.5412,0
18609880,1.0000,0.0009,-0.0002,-0.0005,0.0041,0.0152,-0.5346,0
18610047,1.0000,0.0009,-0.0002,-0.0004,0.0008,-0.0044,-0.5461,0
18610213,1.0000,0.0009,-0.0002,-0.0004,-0.0076,-0.0105,-0.5507,0
18610380,1.0000,0.0009,-0.0002,-0.0005,-0.0064,0.0034,-0.5753,0
18610547,1.0000,0.0009,-0.0002,-0.0005,-0.0084,0.0065,-0.5596,0
18610713,1.0000,0.0009,-0.0002,-0.0005,-0.0076,0.0182,-0.5351,0
18610880,1.0000,0.0009,-0.0002,-0.0005,-0.0058,0.0061,-0.5421,0
18611047,1.0000,0.0009,-0.0002,-0.0005,0.0013,0.0062,-0.5438,0
18611213,1.0000,0.0009,-0.0002,-0.0005,0.0125,0.0030,-0.5459,0
18611380,1.0000,0.0009,-0.0002,-0.0005,-0.0041,-0.0044,-0.5381,0
18611547,1.0000,0.0009,-0.0002,-0.0005,-0.0178,-0.0150,-0.5467,0
18611713,1.0000,0.0009,-0.0002,-0.0005,0.0120,0.0050,-0.5371,0
18611880,1.0000,0.0009,-0.0002,-0.0005,-0.0070,0.0045,-0.5315,0
18612047,1.0000,0.0009,-0.0002,-0.0005,-0.0053,0.0007,-0.5399,0
18612213,1.0000,0.0009,-0.0002,-0.0005,-0.0052,0.0014,-0.5415,0
18612380,1.0000,0.0009,-0.0002,-0.0006,-0.0031,0.0016,-0.5338,0
18612547,1.0000,0.0009,-0.0002,-0.0006,0.0104,0.0059,-0.5374,0
18612713,1.0000,0.0009,-0.0002,-0.0006,-0.0110,-0.0067,-0.5259,0
18612880,1.0000,0.0009,-0.0002,-0.0006,0.0052,-0.0047,-0.5652,0
18613047,1.0000,0.0009,-0.0002,-0.0006,0.0018,-0.0085,-0.5539,0
18613213,1.0000,0.0009,-0.0002,-0.0006,0.0066,-0.0030,-0.5571,0
18613380,1.0000,0.0009,-0.0002,-0.0006,0.0112,0.0053,-0.5679,0
18613547,1.0000,0.0009,-0.0003,-0.0006,-0.0074,-0.0003,-0.5458,0
18613713,1.0000,0.0009,-0.0003,-0.0006,-0.0115,-0.0179,-0.5168,0
18613880,1.0000,0.0009,-0.0003,-0.0006,-0.0003,0.0050,-0.5481,0
18614047,1.0000,0.0009,-0.0003,-0.0006,-0.0028,-0.0201,-0.5300,0
18614213,1.0000,0.0009,-0.0003,-0.0006,0.0041,0.0001,-0.5301,0
18614380,1.0000,0.0009,-0.0003,-0.0006,-0.0026,-0.0003,-0.5372,0
18614547,1.0000,0.0009,-0.0003,-0.0006,0.0020,0.0024,-0.5527,0
18614713,1.0000,0.0009,-0.0003,-0.0006,0.0035,-0.0000,-0.5469,0
18614880,1.0000,0.0009,-0.0003,-0.0006,-0.0070,-0.0088,-0.5473,0
18615047,1.0000,0.0009,-0.0003,-0.0006,-0.0077,0.0131,-0.5442,0
18615213,1.0000,0.0009,-0.0003,-0.0006,-0.0110,0.0107,-0.5409,0
18615380,1.0000,0.0009,-0.0003,-0.0006,0.0060,0.0026,-0.5342,0
18615547,1.0000,0.0009,-0.0003,-0.0006,-0.0054,-0.0015,-0.5488,0
18615713,1.0000,0.0009,-0.0003,-0.0006,-0.0052,-0.0020,-0.5474,0
18615880,1.0000,0.0009,-0.0003,-0.0006,-0.0083,0.0042,-0.5462,0
18616047,1.0000,0.0009,-0.0003,-0.0006,-0.0132,0.0089,-0.5569,0
18616213,1.0000,0.0009,-0.0003,-0.0007,-0.0096,-0.0165,-0.5437,0
18616380,1.0000,0.0009,-0.0003,-0.0006,0.0028,0.0156,-0.5516,0
18616547,1.0000,0.0009,-0.0003,-0.0007,0.0042,0.0005,-0.5267,0
18616713,1.0000,0.0009,-0.0003,-0.0007,-0.0024,-0.0076,-0.5565,0
18616880,1.0000,0.0009,-0.0003,-0.0007,-0.0188,-0.0013,-0.5523,0
18617047,1.0000,0.0009,-0.0003,-0.0007,-0.0195,-0.0032,-0.5563,0
18617213,1.0000,0.0009,-0.0003,-0.0007,-0.0099,-0.0133,-0.5532,0
18617380,1.0000,0.0009,-0.0003,-0.0007,-0.0047,-0.0077,-0.5348,0
18617547,1.0000,0.0009,-0.0003,-0.0007,0.0026,-0.0018,-0.5516,0
18617713,1.0000,0.0009,-0.0003,-0.0007,0.0013,-0.0125,-0.5510,0
18617880,1.0000,0.0009,-0.0003,-0.0007,-0.0021,-0.0078,-0.5556,0
18618047,1.0000,0.0009,-0.0003,-0.0007,-0.0114,-0.0024,-0.5509,0
18618213,1.0000,0.0009,-0.0003,-0.0007,-0.0226,-0.0286,-0.5530,0
18618380,1.0000,0.0009,-0.0003,-0.0007,-0.0084,-0.0013,-0.5458,0
18618547,1.0000,0.0009,-0.0003,-0.0007,-0.0101,0.0075,-0.5458,0
18618714,1.0000,0.0009,-0.0003,-0.0007,-0.0043,-0.0046,-0.5382,0
18618880,1.0000,0.0009,-0.0003,-0.0007,0.0061,-0.0038,-0.5480,0
18619047,1.0000,0.0009,-0.0003,-0.0007,-0.0181,-0.0052,-0.5469,0
18619214,1.0000,0.0009,-0.0003,-0.0007,-0.0066,-0.0056,-0.5724,0
18619380,1.0000,0.0009,-0.0003,-0.0007,-0.0118,-0.0011,-0.5466,0
18619547,1.0000,0.0009,-0.0003,-0.0007,-0.0208,0.0040,-0.5508,0
18619714,1.0000,0.0009,-0.0003,-0.0007,0.0094,0.0053,-0.5502,0
18619880,1.0000,0.0009,-0.0003,-0.0007,0.0004,0.0078,-0.5351,0
18620047,1.0000,0.0009,-0.0003,-0.0007,0.0056,0.0039,-0.5283,0
18620214,1.0000,0.0009,-0.0003,-0.0007,-0.0062,-0.0025,-0.5320,0
18620380,1.0000,0.0009,-0.0003,-0.0007,-0.0039,-0.0053,-0.5397,0
18620547,1.0000,0.0009,-0.0003,-0.0007,-0.0060,0.0002,-0.5304,0
18620714,1.0000,0.0009,-0.0003,-0.0007,-0.0082,0.0026,-0.5519,0
18620880,1.0000,0.0009,-0.0003,-0.0007,-0.0038,0.0030,-0.5419,0
18621047,1.0000,0.0009,-0.0002,-0.0007,-0.0064,-0.0083,-0.5313,0
18621214,1.0000,0.0009,-0.0002,-0.0007,0.0058,0.0025,-0.5472,0
18621380,1.0000,0.0009,-0.0002,-0.0007,0.0119,0.0027,-0.5293,0
18621547,1.0000,0.0009,-0.0003,-0.0007,0.0043,-0.0077,-0.5548,0
18621714,1.0000,0.0009,-0.0003,-0.0007,-0.0032,0.0016,-0.5449,0
18621880,1.0000,0.0009,-0.0003,-0.0007,-0.0140,0.0024,-0.5425,0
18622047,1.0000,0.0009,-0.0003,-0.0008,-0.0093,-0.0079,-0.5567,0
18622214,1.0000,0.0009,-0.0003,-0.0008,-0.0136,0.0046,-0.5297,0
18622380,1.0000,0.0009,-0.0003,-0.0008,0.0079,0.0018,-0.5535,0
18622547,1.0000,0.0009,-0.0003,-0.0008,-0.0035,0.0027,-0.5324,0
18622714,1.0000,0.0009,-0.0003,-0.0008,-0.0056,-0.0033,-0.5290,0
18622880,1.0000,0.0009,-0.0003,-0.0008,-0.0174,-0.0035,-0.5300,0
18623047,1.0000,0.0009,-0.0003,-0.0008,0.0097,-0.0008,-0.5087,0
18623214,1.0000,0.0009,-0.0003,-0.0008,-0.0041,-0.0015,-0.5319,0
18623380,1.0000,0.0009,-0.0003,-0.0008,0.0019,0.0069,-0.5469,0
18623547,1.0000,0.0009,-0.0003,-0.0008,-0.0015,0.0052,-0.5473,0
18623714,1.0000,0.0008,-0.0003,-0.0008,0.0007,0.0051,-0.5425,0
18623880,1.0000,0.0008,-0.0003,-0.0008,-0.0165,-0.0011,-0.5573,0
18624047,1.0000,0.0008,-0.0003,-0.0008,0.0012,-0.0002,-0.5220,0
18624214,1.0000,0.0008,-0.0003,-0.0008,-0.0144,0.0138,-0.5344,0
18624380,1.0000,0.0008,-0.0003,-0.0008,-0.0103,0.0026,-0.5557,0
18624547,1.0000,0.0008,-0.0003,-0.0008,-0.0168,0.0020,-0.5527,0
18624714,1.0000,0.0008,-0.0003,-0.0008,-0.0045,0.0187,-0.5616,0
18624880,1.0000,0.0009,-0.0003,-0.0008,-0.0193,-0.0028,-0.5327,0
18625047,1.0000,0.0008,-0.0003,-0.0008,-0.0130,-0.0125,-0.5336,0
18625214,1.0000,0.0008,-0.0003,-0.0008,-0.0103,0.0029,-0.5330,0
18625380,1.0000,0.0008,-0.0003,-0.0008,0.0145,-0.0034,-0.5234,0
18625547,1.0000,0.0009,-0.0003,-0.0008,-0.0020,0.0060,-0.5301,0
18625714,1.0000,0.0009,-0.0003,-0.0008,-0.0045,0.0031,-0.5286,0
18625880,1.0000,0.0009,-0.0003,-0.0008,-0.0147,0.0107,-0.5280,0
18626047,1.0000,0.0009,-0.0003,-0.0008,-0.0065,-0.0180,-0.5675,0
18626214,1.0000,0.0009,-0.0003,-0.0008,-0.0061,0.0104,-0.5334,0
18626380,1.0000,0.0009,-0.0003,-0.0008,0.0150,-0.0044,-0.5574,0
18626547,1.0000,0.0009,-0.0003,-0.0008,0.0007,-0.0043,-0.5615,0
18626714,1.0000,0.0009,-0.0003,-0.0008,0.0002,0.0088,-0.5118,0
18626880,1.0000,0.0009,-0.0003,-0.0008,0.0026,-0.0159,-0.5415,0
18627047,1.0000,0.0009,-0.0003,-0.0008,-0.0014,0.0089,-0.5671,0
18627214,1.0000,0.0009,-0.0003,-0.0009,-0.0016,-0.0033,-0.5585,0
18627380,1.0000,0.0009,-0.0003,-0.0009,-0.0053,0.0062,-0.5513,0
18627547,1.0000,0.0009,-0.0003,-0.0009,-0.0001,-0.0146,-0.5482,0
18627714,1.0000,0.0009,-0.0003,-0.0009,0.0016,-0.0041,-0.5265,0
18627880,1.0000,0.0009,-0.0003,-0.0009,-0.0041,0.0019,-0.5325,0
18628047,1.0000,0.0009,-0.0003,-0.0009,-0.0071,0.0045,-0.5485,0
18628214,1.0000,0.0009,-0.0003,-0.0009,0.0043,-0.0097,-0.5293,0
18628380,1.0000,0.0009,-0.0003,-0.0009,-0.0097,0.0047,-0.5542,0
18628547,1.0000,0.0008,-0.0003,-0.0008,-0.0021,0.0059,-0.5443,0
18628714,1.0000,0.0008,-0.0003,-0.0008,0.0047,0.0098,-0.5377,0
18628880,1.0000,0.0008,-0.0003,-0.0008,-0.0126,0.0080,-0.5597,0
18629047,1.0000,0.0008,-0.0003,-0.0008,-0.0183,-0.0001,-0.5437,0
18629214,1.0000,0.0008,-0.0003,-0.0008,0.0040,-0.0015,-0.5438,0
18629380,1.0000,0.0008,-0.0003,-0.0008,0.0041,-0.0065,-0.5356,0
18629547,1.0000,0.0008,-0.0003,-0.0008,0.0039,-0.0035,-0.5517,0
18629714,1.0000,0.0008,-0.0003,-0.0009,-0.0074,0.0047,-0.5527,0
18629880,1.0000,0.0008,-0.0003,-0.0009,0.0039,0.0036,-0.5458,0
18630047,1.0000,0.0009,-0.0003,-0.0009,-0.0146,-0.0045,-0.5401,0
18630214,1.0000,0.0008,-0.0003,-0.0009,-0.0008,0.0018,-0.5257,0
18630380,1.0000,0.0008,-0.0003,-0.0009,0.0065,-0.0123,-0.5371,0
18630547,1.0000,0.0008,-0.0003,-0.0009,-0.0068,-0.0035,-0.5479,0
18630714,1.0000,0.0008,-0.0003,-0.0009,0.0091,-0.0020,-0.5496,0
18630880,1.0000,0.0008,-0.0003,-0.0009,0.0078,-0.0002,-0.5490,0
18631047,1.0000,0.0008,-0.0003,-0.0009,0.0005,-0.0051,-0.5339,0
18631214,1.0000,0.0008,-0.0003,-0.0009,-0.0139,0.0002,-0.5433,0
18631380,1.0000,0.0008,-0.0003,-0.0009,-0.0096,0.0050,-0.5465,0
18631547,1.0000,0.0008,-0.0003,-0.0009,-0.0133,0.0054,-0.5478,0
18631714,1.0000,0.0008,-0.0003,-0.0009,-0.0062,0.0088,-0.5511,0
18631880,1.0000,0.0008,-0.0003,-0.0009,0.0054,-0.0006,-0.5474,0
18632047,1.0000,0.0008,-0.0003,-0.0009,0.0083,-0.0016,-0.5325,0
18632214,1.0000,0.0008,-0.0003,-0.0009,-0.0094,0.0000,-0.5766,0
18632380,1.0000,0.0008,-0.0003,-0.0009,0.0051,-0.0046,-0.5418,0
18632547,1.0000,0.0009,-0.0002,-0.0009,-0.0029,0.0017,-0.5573,0
18632714,1.0000,0.0009,-0.0002,-0.0009,-0.0103,-0.0029,-0.5659,0
18632880,1.0000,0.0009,-0.0002,-0.0009,-0.0082,0.0030,-0.5516,0
18633047,1.0000,0.0009,-0.0002,-0.0009,-0.0015,0.0017,-0.5501,0
18633214,1.0000,0.0009,-0.0002,-0.0010,-0.0005,0.0063,-0.5372,0
18633380,1.0000,0.0009,-0.0002,-0.0010,0.0043,0.0044,-0.5629,0
18633547,1.0000,0.0009,-0.0002,-0.0010,-0.0033,-0.0213,-0.5376,0
18633714,1.0000,0.0009,-0.0002,-0.0010,-0.0120,0.0047,-0.5214,0
18633880,1.0000,0.0009,-0.0002,-0.0010,0.0195,0.0013,-0.5505,0
18634047,1.0000,0.0009,-0.0002,-0.0010,-0.0071,-0.0056,-0.5569,0
18634214,1.0000,0.0009,-0.0002,-0.0010,-0.0021,0.0016,-0.5287,0
18634380,1.0000,0.0009,-0.0002,-0.0010,0.0036,0.0051,-0.5441,0
18634547,1.0000,0.0009,-0.0002,-0.0010,-0.0049,-0.0088,-0.5461,0
18634714,1.0000,0.0009,-0.0002,-0.0010,-0.0038,-0.0038,-0.5393,0
18634880,1.0000,0.0009,-0.0002,-0.0010,-0.0007,0.0012,-0.5510,0
18635047,1.0000,0.0008,-0.0002,-0.0010,-0.0026,0.0096,-0.5206,0
18635214,1.0000,0.0008,-0.0002,-0.0010,-0.0040,0.0301,-0.5448,0
18635381,1.0000,0.0008,-0.0002,-0.0010,0.0022,0.0021,-0.5574,0
18635547,1.0000,0.0008,-0.0002,-0.0010,0.0113,0.0018,-0.5384,0
18635714,1.0000,0.0008,-0.0002,-0.0010,-0.0105,0.0078,-0.5391,0
18635881,1.0000,0.0008,-0.0002,-0.0010,0.0032,0.0083,-0.5371,0
18636047,1.0000,0.0008,-0.0002,-0.0010,-0.0044,-0.0134,-0.5520,0
18636214,1.0000,0.0008,-0.0002,-0.0010,0.0006,0.0020,-0.5314,0
18636381,1.0000,0.0008,-0.0002,-0.0010,0.0013,0.0008,-0.5387,0
18636547,1.0000,0.0008,-0.0002,-0.0010,0.0043,-0.0016,-0.5421,0
18636714,1.0000,0.0008,-0.0002,-0.0011,0.0093,0.0029,-0.5342,0
18636881,1.0000,0.0008,-0.0002,-0.0010,-0.0103,-0.0011,-0.5540,0
18637047,1.0000,0.0008,-0.0002,-0.0011,0.0032,-0.0004,-0.5510,0
18637214,1.0000,0.0008,-0.0002,-0.0011,-0.0144,-0.0068,-0.5497,0
18637381,1.0000,0.0008,-0.0002,-0.0011,-0.0109,-0.0138,-0.5612,0
18637547,1.0000,0.0008,-0.0002,-0.0011,0.0022,0.0013,-0.5342,0
18637714,1.0000,0.0008,-0.0002,-0.0011,-0.0037,0.0047,-0.5335,0
18637881,1.0000,0.0008,-0.0002,-0.0011,0.0036,0.0157,-0.5484,0
18638047,1.0000,0.0008,-0.0002,-0.0011,-0.0162,0.0027,-0.5698,0
18638214,1.0000,0.0008,-0.0002,-0.0011,0.0044,0.0035,-0.5540,0
18638381,1.0000,0.0008,-0.0002,-0.0011,0.0020,0.0025,-0.5593,0
18638547,1.0000,0.0008,-0.0002,-0.0011,-0.0046,0.0088,-0.5392,0
18638714,1.0000,0.0008,-0.0002,-0.0011,0.0090,-0.0002,-0.5337,0
18638881,1.0000,0.0008,-0.0002,-0.0011,0.0033,0.0103,-0.5324,0
18639047,1.0000,0.0008,-0.0002,-0.0011,0.0043,-0.0076,-0.5283,0
18639214,1.0000,0.0008,-0.0002,-0.0011,-0.0001,-0.0024,-0.5458,0
18639381,1.0000,0.0008,-0.0002,-0.0011,0.0126,-0.0007,-0.5324,0
18639547,1.0000,0.0008,-0.0002,-0.0011,-0.0078,0.0064,-0.5627,0
18639714,1.0000,0.0008,-0.0002,-0.0011,-0.0120,0.0089,-0.5459,0
18639881,1.0000,0.0008,-0.0002,-0.0011,-0.0038,-0.0022,-0.5544,0
18640047,1.0000,0.0008,-0.0002,-0.0011,0.0097,0.0033,-0.5343,0
18640214,1.0000,0.0008,-0.0002,-0.0011,0.0050,-0.0014,-0.5391,0
18640381,1.0000,0.0008,-0.0002,-0.0011,0.0052,-0.0042,-0.5564,0
18640547,1.0000,0.0008,-0.0002,-0.0011,-0.0124,0.0128,-0.5409,0
18640714,1.0000,0.0008,-0.0002,-0.0011,-0.0148,0.0112,-0.5632,0
18640881,1.0000,0.0008,-0.0002,-0.0011,-0.0222,0.0132,-0.5446,0
18641047,1.0000,0.0008,-0.0002,-0.0011,-0.0109,-0.0037,-0.5309,0
18641214,1.0000,0.0008,-0.0002,-0.0011,-0.0077,0.0056,-0.5384,0
18641381,1.0000,0.0008,-0.0002,-0.0011,0.0062,-0.0010,-0.5530,0
18641547,1.0000,0.0008,-0.0002,-0.0011,-0.0042,0.0032,-0.5456,0
18641714,1.0000,0.0008,-0.0002,-0.0011,-0.0077,-0.0062,-0.5361,0
18641881,1.0000,0.0008,-0.0002,-0.0011,-0.0091,0.0012,-0.5716,0
18642047,1.0000,0.0008,-0.0002,-0.0011,-0.0155,0.0121,-0.5542,0
18642214,1.0000,0.0008,-0.0002,-0.0011,0.0041,-0.0006,-0.5230,0
18642381,1.0000,0.0008,-0.0002,-0.0011,0.0012,0.0062,-0.5446,0
18642547,1.0000,0.0008,-0.0002,-0.0011,-0.0016,-0.0027,-0.5219,0
18642714,1.0000,0.0008,-0.0002,-0.0011,0.0192,0.0018,-0.5563,0
18642881,1.0000,0.0008,-0.0002,-0.0011,-0.0162,0.0044,-0.5459,0
18643047,1.0000,0.0008,-0.0002,-0.0011,-0.0229,-0.0052,-0.5325,0
18643214,1.0000,0.0008,-0.0002,-0.0011,-0.0009,0.0088,-0.5443,0
18643381,1.0000,0.0008,-0.0002,-0.0011,-0.0061,0.0074,-0.5526,0
18643547,1.0000,0.0008,-0.0002,-0.0011,-0.0064,-0.0113,-0.5527,0
18643714,1.0000,0.0008,-0.0002,-0.0011,-0.0008,0.0096,-0.5261,0
18643881,1.0000,0.0008,-0.0002,-0.0011,0.0100,-0.0051,-0.5365,0
18644047,1.0000,0.0008,-0.0002,-0.0011,-0.0094,0.0183,-0.5476,0
18644214,1.0000,0.0008,-0.0002,-0.0011,-0.0049,0.0068,-0.5501,0
18644381,1.0000,0.0008,-0.0002,-0.0011,-0.0062,0.0097,-0.5335,0
18644547,1.0000,0.0008,-0.0002,-0.0011,-0.0123,-0.0060,-0.5506,0
18644714,1.0000,0.0008,-0.0002,-0.0012,-0.0087,-0.0000,-0.5404,0
18644881,1.0000,0.0008,-0.0002,-0.0011,0.0006,-0.0023,-0.5505,0
18645047,1.0000,0.0008,-0.0002,-0.0012,0.0026,0.0037,-0.5479,0
18645214,1.0000,0.0008,-0.0002,-0.0011,0.0029,-0.0014,-0.5302,0
18645381,1.0000,0.0008,-0.0002,-0.0011,0.0117,0.0006,-0.5523,0
18645547,1.0000,0.0007,-0.0002,-0.0011,0.0012,0.0059,-0.5471,0
18645714,1.0000,0.0007,-0.0002,-0.0012,-0.0065,0.0122,-0.5475,0
18645881,1.0000,0.0007,-0.0002,-0.0012,-0.0110,0.0066,-0.5604,0
18646047,1.0000,0.0007,-0.0002,-0.0011,-0.0032,-0.0018,-0.5627,0
18646214,1.0000,0.0007,-0.0002,-0.0011,-0.0119,0.0132,-0.5446,0
18646381,1.0000,0.0007,-0.0003,-0.0011,0.0040,0.0136,-0.5440,0
18646547,1.0000,0.0007,-0.0003,-0.0011,0.0040,0.0079,-0.5438,0
18646714,1.0000,0.0007,-0.0003,-0.0011,-0.0131,0.0060,-0.5616,0
18646881,1.0000,0.0007,-0.0003,-0.0011,-0.0082,0.0119,-0.5590,0
18647047,1.0000,0.0007,-0.0003,-0.0011,-0.0148,0.0060,-0.5203,0
18647214,1.0000,0.0007,-0.0003,-0.0011,-0.0017,-0.0010,-0.5333,0
18647381,1.0000,0.0007,-0.0003,-0.0011,-0.0014,0.0045,-0.5379,0
18647547,1.0000,0.0007,-0.0002,-0.0011,0.0044,0.0069,-0.5437,0
18647714,1.0000,0.0007,-0.0002,-0.0011,0.0012,-0.0035,-0.5439,0
18647881,1.0000,0.0007,-0.0002,-0.0011,0.0055,0.0164,-0.5411,0
18648047,1.0000,0.0007,-0.0002,-0.0011,-0.0161,0.0165,-0.5375,0
18648214,1.0000,0.0007,-0.0002,-0.0011,-0.0049,-0.0032,-0.5665,0
18648381,1.0000,0.0007,-0.0002,-0.0011,-0.0082,0.0081,-0.5490,0
18648547,1.0000,0.0007,-0.0002,-0.0011,-0.0112,0.0034,-0.5507,0
18648714,1.0000,0.0007,-0.0002,-0.0011,-0.0110,-0.0006,-0.5478,0
18648881,1.0000,0.0007,-0.0002,-0.0011,-0.0015,0.0018,-0.5309,0
18649047,1.0000,0.0007,-0.0002,-0.0011,-0.0056,0.0013,-0.5504,0
18649214,1.0000,0.0007,-0.0002,-0.0011,-0.0253,-0.0086,-0.5487,0
18649381,1.0000,0.0007,-0.0002,-0.0011,0.0009,0.0024,-0.5350,0
18649547,1.0000,0.0007,-0.0002,-0.0011,0.0052,0.0098,-0.5350,0
18649714,1.0000,0.0007,-0.0002,-0.0011,-0.0083,-0.0032,-0.5420,0
18649881,1.0000,0.0007,-0.0002,-0.0011,0.0037,0.0058,-0.5306,0
18650047,1.0000,0.0006,-0.0002,-0.0011,-0.0047,0.0029,-0.5357,0
18650214,1.0000,0.0006,-0.0002,-0.0011,-0.0083,0.0147,-0.5550,0
18650381,1.0000,0.0006,-0.0002,-0.0011,0.0008,0.0142,-0.5512,0
18650547,1.0000,0.0006,-0.0002,-0.0011,-0.0075,-0.0025,-0.5362,0
18650714,1.0000,0.0006,-0.0002,-0.0011,0.0051,0.0033,-0.5526,0
18650881,1.0000,0.0006,-0.0002,-0.0011,-0.0018,0.0140,-0.5475,0
18651047,1.0000,0.0006,-0.0002,-0.0011,-0.0091,0.0079,-0.5578,0
18651214,1.0000,0.0006,-0.0002,-0.0011,0.0075,0.0084,-0.5592,0
18651381,1.0000,0.0006,-0.0002,-0.0011,-0.0190,0.0039,-0.5562,0
18651547,1.0000,0.0006,-0.0002,-0.0011,0.0041,-0.0159,-0.5548,0
18651714,1.0000,0.0006,-0.0002,-0.0011,0.0135,-0.0167,-0.5539,0
18651881,1.0000,0.0006,-0.0002,-0.0011,0.0056,0.0075,-0.5357,0
18652048,1.0000,0.0006,-0.0002,-0.0011,0.0007,0.0180,-0.5523,0
18652214,1.0000,0.0006,-0.0002,-0.0011,-0.0016,0.0127,-0.5470,0
18652381,1.0000,0.0006,-0.0002,-0.0011,0.0060,0.0028,-0.5419,0
18652548,1.0000,0.0008,-0.0002,-0.0011,0.0075,0.0094,-0.5331,0
18652714,1.0000,0.0008,-0.0002,-0.0011,0.0050,-0.0250,-0.5232,0
18652881,1.0000,0.0008,-0.0002,-0.0011,0.0050,0.0037,-0.5363,0
18653048,1.0000,0.0008,-0.0002,-0.0011,-0.0077,0.0025,-0.5369,0
18653214,1.0000,0.0008,-0.0002,-0.0011,-0.0191,0.0119,-0.5129,0
18653381,1.0000,0.0008,-0.0002,-0.0011,-0.0099,0.0127,-0.5472,0
18653548,1.0000,0.0008,-0.0002,-0.0011,0.0090,-0.0092,-0.5115,0
18653714,1.0000,0.0008,-0.0002,-0.0011,0.0005,0.0082,-0.5361,0
18653881,1.0000,0.0008,-0.0002,-0.0011,-0.0112,0.0084,-0.5525,0
18654048,1.0000,0.0008,-0.0002,-0.0011,-0.0030,-0.0101,-0.5449,0
18654214,1.0000,0.0008,-0.0002,-0.0011,-0.0060,0.0062,-0.5626,0
18654381,1.0000,0.0008,-0.0002,-0.0011,-0.0133,0.0035,-0.5616,0
18654548,1.0000,0.0008,-0.0002,-0.0011,-0.0148,0.0025,-0.5190,0
18654714,1.0000,0.0008,-0.0002,-0.0011,0.0094,0.0058,-0.5388,0
18654881,1.0000,0.0008,-0.0002,-0.0011,-0.0024,-0.0083,-0.5480,0
18655048,1.0000,0.0008,-0.0002,-0.0011,0.0151,0.0010,-0.5667,0
18655214,1.0000,0.0008,-0.0002,-0.0011,0.0021,-0.0086,-0.5485,0
18655381,1.0000,0.0008,-0.0002,-0.0011,0.0060,0.0031,-0.5496,0
18655548,1.0000,0.0008,-0.0002,-0.0011,-0.0036,0.0091,-0.5347,0
18655714,1.0000,0.0008,-0.0002,-0.0011,-0.0000,0.0074,-0.5461,0
18655881,1.0000,0.0008,-0.0002,-0.0011,0.0049,0.0011,-0.5522,0
18656048,1.0000,0.0008,-0.0002,-0.0011,-0.0075,0.0024,-0.5214,0
18656214,1.0000,0.0008,-0.0002,-0.0011,0.0018,-0.0041,-0.5497,0
18656381,1.0000,0.0008,-0.0002,-0.0011,0.0148,-0.0098,-0.5408,0
18656548,1.0000,0.0008,-0.0002,-0.0011,-0.0029,-0.0078,-0.5295,0
18656714,1.0000,0.0008,-0.0002,-0.0011,0.0038,-0.0073,-0.5585,0
18656881,1.0000,0.0008,-0.0002,-0.0011,0.0055,0.0146,-0.5609,0
18657048,1.0000,0.0008,-0.0002,-0.0011,-0.0098,-0.0070,-0.4688,0
18657214,1.0000,0.0008,-0.0002,-0.0011,0.0169,-0.0035,-0.5748,0
18657381,1.0000,0.0008,-0.0002,-0.0011,-0.0042,-0.0133,-0.5926,0
18657548,1.0000,0.0008,-0.0003,-0.0011,-0.0015,0.0011,-0.5167,0
18657714,1.0000,0.0008,-0.0003,-0.0011,-0.0122,0.0138,-0.5481,0
18657881,1.0000,0.0008,-0.0003,-0.0011,-0.0024,0.0040,-0.5494,0
18658048,1.0000,0.0008,-0.0003,-0.0011,-0.0182,-0.0002,-0.5293,0
18658214,1.0000,0.0008,-0.0003,-0.0011,-0.0063,0.0052,-0.5596,0
18658381,1.0000,0.0008,-0.0003,-0.0011,-0.0019,0.0072,-0.5378,0
18658548,1.0000,0.0008,-0.0003,-0.0011,0.0121,0.0061,-0.5129,0
18658714,1.0000,0.0008,-0.0003,-0.0011,-0.0002,0.0120,-0.5510,0
18658881,1.0000,0.0008,-0.0003,-0.0011,-0.0015,0.0039,-0.5376,0
18659048,1.0000,0.0008,-0.0003,-0.0011,0.0095,-0.0018,-0.5430,0
18659214,1.0000,0.0008,-0.0003,-0.0011,-0.0018,-0.0166,-0.5759,0
18659381,1.0000,0.0008,-0.0003,-0.0011,-0.0076,0.0001,-0.5478,0
18659548,1.0000,0.0008,-0.0003,-0.0010,-0.0210,-0.0084,-0.5443,0
18659714,1.0000,0.0008,-0.0003,-0.0010,-0.0047,0.0040,-0.5407,0
18659881,1.0000,0.0008,-0.0003,-0.0010,0.0018,0.0135,-0.5323,0
18660048,1.0000,0.0008,-0.0003,-0.0010,0.0126,0.0086,-0.5380,0
18660214,1.0000,0.0008,-0.0003,-0.0010,0.0125,0.0034,-0.5469,0
18660381,1.0000,0.0008,-0.0003,-0.0010,-0.0059,0.0047,-0.5220,0
18660548,1.0000,0.0008,-0.0003,-0.0010,-0.0053,-0.0138,-0.5504,0
18660714,1.0000,0.0008,-0.0003,-0.0010,-0.0130,-0.0035,-0.5485,0
18660881,1.0000,0.0008,-0.0003,-0.0010,-0.0159,0.0118,-0.5354,0
18661048,1.0000,0.0008,-0.0003,-0.0010,0.0086,0.0186,-0.5545,0
18661214,1.0000,0.0008,-0.0003,-0.0010,0.0079,0.0037,-0.5076,0
18661381,1.0000,0.0008,-0.0003,-0.0010,0.0029,-0.0002,-0.5307,0
18661548,1.0000,0.0008,-0.0003,-0.0010,0.0039,-0.0184,-0.5222,0
18661714,1.0000,0.0008,-0.0003,-0.0010,-0.0056,-0.0044,-0.5492,0
18661881,1.0000,0.0008,-0.0003,-0.0010,-0.0304,-0.0198,-0.5494,0
18662048,1.0000,0.0008,-0.0003,-0.0010,-0.0130,-0.0046,-0.5485,0
18662214,1.0000,0.0007,-0.0003,-0.0010,0.0004,0.0027,-0.5623,0
18662381,1.0000,0.0008,-0.0003,-0.0010,0.0193,-0.0008,-0.5472,0
18662548,1.0000,0.0008,-0.0003,-0.0010,0.0201,-0.0053,-0.5347,0
18662714,1.0000,0.0008,-0.0003,-0.0010,-0.0133,-0.0013,-0.5424,0
18662881,1.0000,0.0008,-0.0003,-0.0010,-0.0248,-0.0083,-0.5662,0
18663048,1.0000,0.0008,-0.0003,-0.0010,-0.0248,0.0195,-0.5619,0
18663214,1.0000,0.0008,-0.0003,-0.0010,-0.0258,-0.0030,-0.5268,0
18663381,1.0000,0.0008,-0.0003,-0.0010,0.0001,-0.0078,-0.5424,0
18663548,1.0000,0.0008,-0.0003,-0.0010,0.0224,0.0073,-0.5256,0
18663714,1.0000,0.0008,-0.0003,-0.0010,-0.0017,0.0040,-0.5552,0
18663881,1.0000,0.0008,-0.0003,-0.0010,0.0037,-0.0050,-0.5526,0
18664048,1.0000,0.0008,-0.0003,-0.0010,-0.0205,0.0067,-0.5474,0
18664214,1.0000,0.0008,-0.0003,-0.0010,-0.0146,0.0027,-0.5471,0
18664381,1.0000,0.0008,-0.0003,-0.0010,-0.0015,-0.0050,-0.5302,0
18664548,1.0000,0.0008,-0.0003,-0.0010,0.0105,-0.0040,-0.5562,0
18664714,1.0000,0.0008,-0.0003,-0.0010,0.0022,-0.0041,-0.5230,0
18664881,1.0000,0.0008,-0.0003,-0.0010,-0.0049,0.0046,-0.5481,0
18665048,1.0000,0.0008,-0.0003,-0.0010,-0.0127,0.0089,-0.5270,0
18665214,1.0000,0.0008,-0.0003,-0.0010,-0.0125,-0.0065,-0.5341,0
18665381,1.0000,0.0008,-0.0003,-0.0010,-0.0113,-0.0089,-0.5641,0
18665548,1.0000,0.0008,-0.0003,-0.0010,0.0167,-0.0100,-0.5530,0
18665714,1.0000,0.0008,-0.0003,-0.0010,-0.0001,0.0089,-0.5367,0
18665881,1.0000,0.0008,-0.0003,-0.0010,-0.0071,0.0015,-0.5436,0
18666048,1.0000,0.0008,-0.0003,-0.0010,0.0040,0.0014,-0.5314,0
18666214,1.0000,0.0008,-0.0003,-0.0010,-0.0001,0.0117,-0.5272,0
18666381,1.0000,0.0008,-0.0003,-0.0010,-0.0118,-0.0112,-0.5667,0
18666548,1.0000,0.0008,-0.0003,-0.0010,0.0048,-0.0101,-0.5327,0
18666714,1.0000,0.0008,-0.0003,-0.0010,0.0035,-0.0119,-0.5305,0
18666881,1.0000,0.0008,-0.0003,-0.0009,-0.0067,0.0038,-0.5404,0
18667048,1.0000,0.0008,-0.0003,-0.0009,0.0064,0.0214,-0.5268,0
18667214,1.0000,0.0008,-0.0003,-0.0009,-0.0083,0.0053,-0.5482,0
18667381,1.0000,0.0008,-0.0003,-0.0009,0.0075,0.0140,-0.5611,0
18667548,1.0000,0.0008,-0.0003,-0.0009,-0.0251,0.0152,-0.5193,0
18667714,1.0000,0.0008,-0.0003,-0.0009,-0.0104,0.0011,-0.5324,0
18667881,1.0000,0.0008,-0.0003,-0.0009,0.0056,-0.0061,-0.5613,0
18668048,1.0000,0.0008,-0.0003,-0.0010,0.0086,0.0068,-0.5222,0
18668214,1.0000,0.0008,-0.0003,-0.0010,-0.0050,0.0009,-0.5433,0
18668381,1.0000,0.0008,-0.0003,-0.0009,-0.0015,0.0123,-0.5634,0
18668548,1.0000,0.0008,-0.0003,-0.0009,0.0029,0.0118,-0.5033,0
18668715,1.0000,0.0008,-0.0003,-0.0009,-0.0086,0.0052,-0.5553,0
18668881,1.0000,0.0008,-0.0003,-0.0009,0.0151,-0.0036,-0.5422,0
18669048,1.0000,0.0008,-0.0003,-0.0009,-0.0055,-0.0213,-0.5067,0
18669215,1.0000,0.0008,-0.0002,-0.0009,-0.0130,0.0042,-0.5851,0
18669381,1.0000,0.0007,-0.0003,-0.0009,-0.0079,0.0258,-0.5685,0
18669548,1.0000,0.0008,-0.0003,-0.0009,-0.0119,0.0159,-0.5450,0
18669715,1.0000,0.0007,-0.0003,-0.0009,-0.0029,0.0146,-0.5506,0
18669881,1.0000,0.0007,-0.0003,-0.0009,-0.0026,-0.0037,-0.5111,0
18670048,1.0000,0.0007,-0.0003,-0.0009,0.0175,-0.0228,-0.5191,0
18670215,1.0000,0.0007,-0.0003,-0.0009,0.0024,-0.0111,-0.5532,0
18670381,1.0000,0.0008,-0.0003,-0.0009,-0.0191,-0.0129,-0.5627,0
18670548,1.0000,0.0008,-0.0003,-0.0009,-0.0301,0.0090,-0.5507,0
18670715,1.0000,0.0008,-0.0003,-0.0009,-0.0209,0.0294,-0.5814,0
18670881,1.0000,0.0008,-0.0002,-0.0009,-0.0009,0.0072,-0.5439,0
18671048,1.0000,0.0007,-0.0002,-0.0009,0.0074,-0.0287,-0.5103,0
18671215,1.0000,0.0007,-0.0002,-0.0009,0.0065,-0.0100,-0.5234,0
18671381,1.0000,0.0007,-0.0002,-0.0009,0.0049,-0.0060,-0.5279,0
18671548,1.0000,0.0007,-0.0002,-0.0009,-0.0023,0.0124,-0.5473,0
18671715,1.0000,0.0007,-0.0002,-0.0009,-0.0093,0.0223,-0.5814,0
18671881,1.0000,0.0007,-0.0002,-0.0009,-0.0056,0.0104,-0.5338,0
18672048,1.0000,0.0007,-0.0002,-0.0009,0.0000,-0.0119,-0.5288,0
18672215,1.0000,0.0008,-0.0003,-0.0009,0.0101,-0.0159,-0.5511,0
18672381,1.0000,0.0007,-0.0003,-0.0009,0.0109,0.0095,-0.5132,0
18672548,1.0000,0.0008,-0.0002,-0.0009,-0.0003,0.0090,-0.5504,0
18672715,1.0000,0.0008,-0.0002,-0.0009,-0.0064,0.0100,-0.5720,0
18672881,1.0000,0.0008,-0.0002,-0.0009,-0.0020,0.0112,-0.5577,0
18673048,1.0000,0.0008,-0.0002,-0.0009,0.0027,-0.0079,-0.5570,0
18673215,1.0000,0.0008,-0.0002,-0.0008,-0.0154,-0.0108,-0.5439,0
18673381,1.0000,0.0008,-0.0002,-0.0008,-0.0073,-0.0021,-0.5486,0
18673548,1.0000,0.0008,-0.0002,-0.0008,0.0077,0.0085,-0.5378,0
18673715,1.0000,0.0008,-0.0002,-0.0008,-0.0073,0.0126,-0.5326,0
18673881,1.0000,0.0008,-0.0002,-0.0008,-0.0062,0.0129,-0.5411,0
18674048,1.0000,0.0008,-0.0002,-0.0008,-0.0030,-0.0007,-0.5458,0
18674215,1.0000,0.0008,-0.0002,-0.0008,-0.0014,-0.0211,-0.5202,0
18674381,1.0000,0.0008,-0.0002,-0.0008,0.0225,-0.0084,-0.5407,0
18674548,1.0000,0.0008,-0.0002,-0.0008,0.0021,-0.0059,-0.5257,0
18674715,1.0000,0.0008,-0.0002,-0.0008,0.0083,0.0189,-0.5288,0
18674881,1.0000,0.0007,-0.0002,-0.0008,-0.0054,0.0083,-0.5563,0
18675048,1.0000,0.0007,-0.0002,-0.0008,-0.0057,-0.0002,-0.5526,0
18675215,1.0000,0.0007,-0.0002,-0.0008,-0.0150,-0.0171,-0.5504,0
18675381,1.0000,0.0007,-0.0002,-0.0008,-0.0056,-0.0143,-0.5323,0
18675548,1.0000,0.0007,-0.0002,-0.0008,0.0059,-0.0053,-0.5525,0
18675715,1.0000,0.0007,-0.0002,-0.0008,0.0109,0.0091,-0.5528,0
18675881,1.0000,0.0007,-0.0002,-0.0008,0.0112,0.0050,-0.5387,0
18676048,1.0000,0.0007,-0.0002,-0.0008,0.0042,0.0173,-0.5305,0
18676215,1.0000,0.0007,-0.0002,-0.0008,-0.0052,-0.0075,-0.5638,0
18676381,1.0000,0.0007,-0.0002,-0.0008,-0.0096,-0.0136,-0.5509,0
18676548,1.0000,0.0007,-0.0002,-0.0008,0.0089,-0.0039,-0.5425,0
18676715,1.0000,0.0007,-0.0002,-0.0008,-0.0005,-0.0040,-0.5411,0
18676881,1.0000,0.0007,-0.0002,-0.0008,0.0013,0.0073,-0.5231,0
18677048,1.0000,0.0007,-0.0002,-0.0008,-0.0047,0.0043,-0.5279,0
18677215,1.0000,0.0007,-0.0002,-0.0008,-0.0007,-0.0061,-0.5391,0
18677381,1.0000,0.0007,-0.0002,-0.0008,-0.0067,-0.0069,-0.5669,0
18677548,1.0000,0.0007,-0.0002,-0.0008,-0.0160,-0.0167,-0.5428,0
18677715,1.0000,0.0007,-0.0002,-0.0008,0.0077,0.0054,-0.5490,0
18677881,1.0000,0.0007,-0.0002,-0.0008,-0.0042,0.0071,-0.5550,0
18678048,1.0000,0.0007,-0.0002,-0.0008,-0.0004,-0.0033,-0.5444,0
18678215,1.0000,0.0007,-0.0001,-0.0008,0.0039,0.0037,-0.5391,0
18678381,1.0000,0.0007,-0.0002,-0.0008,0.0072,-0.0118,-0.5313,0
18678548,1.0000,0.0007,-0.0002,-0.0008,-0.0036,-0.0092,-0.5690,0
18678715,1.0000,0.0007,-0.0002,-0.0008,-0.0120,-0.0055,-0.5508,0
18678881,1.0000,0.0007,-0.0002,-0.0008,-0.0004,0.0077,-0.5382,0
18679048,1.0000,0.0008,-0.0002,-0.0008,0.0145,-0.0012,-0.5374,0
18679215,1.0000,0.0007,-0.0002,-0.0008,0.0120,0.0025,-0.5170,0
18679381,1.0000,0.0007,-0.0002,-0.0008,0.0084,-0.0123,-0.5270,0
18679548,1.0000,0.0008,-0.0002,-0.0008,0.0064,-0.0024,-0.5327,0
18679715,1.0000,0.0008,-0.0002,-0.0008,0.0080,-0.0132,-0.5451,0
18679881,1.0000,0.0008,-0.0002,-0.0008,-0.0080,0.0099,-0.5367,0
18680048,1.0000,0.0008,-0.0002,-0.0008,-0.0134,-0.0024,-0.5380,0
18680215,1.0000,0.0008,-0.0002,-0.0008,-0.0104,0.0063,-0.5368,0
18680381,1.0000,0.0008,-0.0002,-0.0008,0.0125,0.0050,-0.5468,0
18680548,1.0000,0.0008,-0.0002,-0.0008,0.0075,0.0111,-0.5459,0
18680715,1.0000,0.0008,-0.0002,-0.0008,0.0014,-0.0033,-0.5608,0
18680881,1.0000,0.0008,-0.0002,-0.0008,0.0044,-0.0098,-0.5505,0
18681048,1.0000,0.0008,-0.0002,-0.0008,-0.0124,0.0170,-0.5507,0
18681215,1.0000,0.0008,-0.0001,-0.0008,-0.0064,-0.0019,-0.5377,0
18681381,1.0000,0.0008,-0.0001,-0.0008,-0.0087,0.0095,-0.5476,0
18681548,1.0000,0.0008,-0.0001,-0.0008,0.0127,0.0055,-0.5331,0
18681715,1.0000,0.0008,-0.0001,-0.0008,-0.0067,-0.0028,-0.5450,0
18681881,1.0000,0.0008,-0.0001,-0.0008,-0.0108,-0.0051,-0.5545,0
18682048,1.0000,0.0008,-0.0001,-0.0008,-0.0121,-0.0002,-0.5690,0
18682215,1.0000,0.0008,-0.0001,-0.0008,-0.0149,0.0075,-0.5544,0
18682381,1.0000,0.0008,-0.0001,-0.0008,-0.0023,0.0066,-0.5502,0
18682548,1.0000,0.0008,-0.0001,-0.0008,-0.0118,0.0042,-0.5370,0
18682715,1.0000,0.0008,-0.0001,-0.0008,0.0110,0.0001,-0.5455,0
18682881,1.0000,0.0008,-0.0001,-0.0008,-0.0016,0.0033,-0.5326,0
18683048,1.0000,0.0008,-0.0001,-0.0008,0.0021,-0.0005,-0.5459,0
18683215,1.0000,0.0008,-0.0001,-0.0008,0.0037,0.0093,-0.5574,0
18683381,1.0000,0.0008,-0.0001,-0.0008,0.0004,-0.0010,-0.5234,0
18683548,1.0000,0.0008,-0.0001,-0.0008,0.0136,-0.0128,-0.5472,0
18683715,1.0000,0.0007,-0.0001,-0.0008,0.0100,-0.0003,-0.5509,0
18683881,1.0000,0.0007,-0.0001,-0.0008,-0.0091,0.0019,-0.5319,0
18684048,1.0000,0.0007,-0.0001,-0.0008,-0.0086,-0.0003,-0.5704,0
18684215,1.0000,0.0007,-0.0001,-0.0008,-0.0100,-0.0027,-0.5506,0
18684381,1.0000,0.0007,-0.0001,-0.0008,-0.0018,-0.0004,-0.5360,0
18684548,1.0000,0.0007,-0.0001,-0.0008,-0.0066,0.0010,-0.5432,0
18684715,1.0000,0.0007,-0.0001,-0.0008,0.0053,-0.0036,-0.5441,0
18684881,1.0000,0.0007,-0.0001,-0.0008,0.0066,-0.0016,-0.5487,0
18685048,1.0000,0.0007,-0.0001,-0.0008,-0.0001,0.0065,-0.5424,0
18685215,1.0000,0.0007,-0.0001,-0.0008,0.0017,0.0000,-0.5306,0
18685382,1.0000,0.0007,-0.0001,-0.0008,0.0089,0.0065,-0.5594,0
18685548,1.0000,0.0007,-0.0001,-0.0008,-0.0136,0.0077,-0.5287,0
18685715,1.0000,0.0007,-0.0001,-0.0008,0.0000,0.0055,-0.5462,0
18685882,1.0000,0.0007,-0.0001,-0.0008,0.0141,-0.0014,-0.5519,0
18686048,1.0000,0.0007,-0.0001,-0.0008,0.0021,0.0031,-0.5368,0
18686215,1.0000,0.0007,-0.0001,-0.0008,0.0012,0.0025,-0.5233,0
18686382,1.0000,0.0007,-0.0001,-0.0008,0.0052,0.0115,-0.5372,0
18686548,1.0000,0.0008,-0.0001,-0.0008,-0.0217,-0.0012,-0.5506,0
18686715,1.0000,0.0008,-0.0001,-0.0008,-0.0105,0.0109,-0.5441,0
18686882,1.0000,0.0008,-0.0001,-0.0008,-0.0087,0.0026,-0.5462,0
18687048,1.0000,0.0007,-0.0001,-0.0008,-0.0015,-0.0017,-0.5316,0
18687215,1.0000,0.0007,-0.0001,-0.0008,0.0116,0.0009,-0.5375,0
18687382,1.0000,0.0007,-0.0001,-0.0008,-0.0062,0.0148,-0.5262,0
18687548,1.0000,0.0007,-0.0001,-0.0008,0.0143,0.0100,-0.5394,0
18687715,1.0000,0.0007,-0.0001,-0.0008,0.0020,0.0053,-0.5342,0
18687882,1.0000,0.0007,-0.0001,-0.0008,-0.0111,-0.0053,-0.5368,0
18688048,1.0000,0.0007,-0.0001,-0.0008,-0.0096,-0.0173,-0.5362,0
18688215,1.0000,0.0007,-0.0001,-0.0008,0.0005,0.0015,-0.5617,0
18688382,1.0000,0.0007,-0.0001,-0.0008,0.0129,0.0024,-0.5100,0
18688548,1.0000,0.0007,-0.0001,-0.0008,0.0071,0.0058,-0.5337,0
18688715,1.0000,0.0007,-0.0001,-0.0008,-0.0020,0.0012,-0.5456,0
18688882,1.0000,0.0007,-0.0001,-0.0008,-0.0024,-0.0060,-0.5482,0
18689048,1.0000,0.0007,-0.0001,-0.0008,0.0072,-0.0101,-0.5719,0
18689215,1.0000,0.0007,-0.0001,-0.0008,0.0027,-0.0053,-0.5602,0
18689382,1.0000,0.0007,-0.0001,-0.0008,0.0057,0.0103,-0.5613,0
18689548,1.0000,0.0007,-0.0001,-0.0009,-0.0052,0.0087,-0.5239,0
18689715,1.0000,0.0007,-0.0001,-0.0009,0.0059,0.0103,-0.5449,0
18689882,1.0000,0.0007,-0.0001,-0.0009,0.0078,0.0000,-0.5617,0
18690048,1.0000,0.0007,-0.0001,-0.0009,-0.0088,-0.0040,-0.5414,0
18690215,1.0000,0.0007,-0.0001,-0.0009,0.0055,-0.0138,-0.5502,0
18690382,1.0000,0.0007,-0.0001,-0.0008,-0.0101,-0.0035,-0.5544,0
18690548,1.0000,0.0007,-0.0001,-0.0009,0.0048,-0.0079,-0.5406,0
18690715,1.0000,0.0007,-0.0001,-0.0008,0.0051,0.0154,-0.5167,0
18690882,1.0000,0.0007,-0.0001,-0.0009,0.0006,0.0014,-0.5186,0
18691048,1.0000,0.0007,-0.0001,-0.0009,-0.0067,0.0027,-0.5407,0
18691215,1.0000,0.0007,-0.0001,-0.0009,0.0044,-0.0194,-0.5347,0
18691382,1.0000,0.0007,-0.0001,-0.0009,-0.0113,0.0009,-0.5380,0
18691548,1.0000,0.0007,-0.0001,-0.0009,-0.0063,-0.0004,-0.5480,0
18691715,1.0000,0.0007,-0.0001,-0.0009,0.0086,0.0159,-0.5401,0
18691882,1.0000,0.0007,-0.0001,-0.0009,-0.0018,0.0067,-0.5392,0
18692048,1.0000,0.0007,-0.0001,-0.0009,-0.0027,0.0134,-0.5321,0
18692215,1.0000,0.0007,-0.0001,-0.0009,0.0047,0.0041,-0.5582,0
18692382,1.0000,0.0007,-0.0001,-0.0009,-0.0172,0.0021,-0.5434,0
18692548,1.0000,0.0007,-0.0002,-0.0008,-0.0140,-0.0018,-0.5581,0
18692715,1.0000,0.0007,-0.0002,-0.0008,-0.0102,0.0066,-0.5331,0
18692882,1.0000,0.0007,-0.0002,-0.0008,0.0008,0.0093,-0.5432,0
18693048,1.0000,0.0007,-0.0002,-0.0008,-0.0062,-0.0033,-0.5319,0
18693215,1.0000,0.0007,-0.0002,-0.0008,-0.0017,0.0048,-0.5376,0
18693382,1.0000,0.0007,-0.0002,-0.0008,-0.0031,0.0109,-0.5504,0
18693548,1.0000,0.0008,-0.0002,-0.0008,-0.0056,-0.0058,-0.5619,0
18693715,1.0000,0.0008,-0.0002,-0.0008,-0.0040,0.0171,-0.5412,0
18693882,1.0000,0.0007,-0.0002,-0.0008,0.0061,-0.0006,-0.5441,0
18694048,1.0000,0.0007,-0.0002,-0.0008,-0.0027,0.0101,-0.5563,0
18694215,1.0000,0.0007,-0.0002,-0.0008,0.0032,0.0029,-0.5463,0
18694382,1.0000,0.0007,-0.0002,-0.0008,-0.0049,0.0069,-0.5323,0
18694548,1.0000,0.0007,-0.0002,-0.0008,-0.0039,0.0061,-0.5392,0
18694715,1.0000,0.0007,-0.0002,-0.0008,-0.0008,-0.0089,-0.5433,0
18694882,1.0000,0.0007,-0.0002,-0.0008,-0.0038,0.0116,-0.5562,0
18695048,1.0000,0.0007,-0.0002,-0.0008,-0.0055,0.0144,-0.5314,0
18695215,1.0000,0.0007,-0.0002,-0.0008,0.0090,-0.0005,-0.5190,0
18695382,1.0000,0.0007,-0.0002,-0.0008,0.0001,0.0059,-0.5401,0
18695548,1.0000,0.0007,-0.0002,-0.0008,-0.0073,0.0051,-0.5422,0
18695715,1.0000,0.0007,-0.0002,-0.0008,-0.0052,-0.0058,-0.5821,0
18695882,1.0000,0.0007,-0.0002,-0.0008,0.0056,-0.0013,-0.5541,0
18696048,1.0000,0.0007,-0.0002,-0.0008,0.0094,0.0055,-0.5103,0
18696215,1.0000,0.0007,-0.0002,-0.0008,-0.0022,-0.0000,-0.5411,0
18696382,1.0000,0.0007,-0.0002,-0.0008,-0.0122,-0.0076,-0.5348,0
18696548,1.0000,0.0007,-0.0002,-0.0008,0.0072,-0.0036,-0.5514,0
18696715,1.0000,0.0007,-0.0002,-0.0008,-0.0006,0.0000,-0.5452,0
18696882,1.0000,0.0007,-0.0002,-0.0008,0.0050,0.0068,-0.5313,0
18697048,1.0000,0.0007,-0.0002,-0.0008,-0.0047,0.0098,-0.5388,0
18697215,1.0000,0.0007,-0.0002,-0.0008,-0.0055,-0.0003,-0.5439,0
18697382,1.0000,0.0007,-0.0002,-0.0008,-0.0007,0.0031,-0.5267,0
18697548,1.0000,0.0007,-0.0002,-0.0008,-0.0100,0.0039,-0.5402,0
18697715,1.0000,0.0007,-0.0002,-0.0008,-0.0124,-0.0054,-0.5413,0
18697882,1.0000,0.0007,-0.0001,-0.0008,0.0079,-0.0011,-0.5400,0
18698048,1.0000,0.0007,-0.0001,-0.0008,-0.0136,0.0128,-0.5415,0
18698215,1.0000,0.0007,-0.0002,-0.0008,-0.0096,-0.0032,-0.5480,0
18698382,1.0000,0.0007,-0.0001,-0.0008,-0.0130,0.0181,-0.5249,0
18698548,1.0000,0.0007,-0.0001,-0.0008,-0.0006,0.0053,-0.5375,0
18698715,1.0000,0.0007,-0.0001,-0.0008,-0.0030,-0.0017,-0.5422,0
18698882,1.0000,0.0007,-0.0001,-0.0007,-0.0049,0.0074,-0.5557,0
18699048,1.0000,0.0007,-0.0001,-0.0007,0.0024,-0.0040,-0.5455,0
18699215,1.0000,0.0007,-0.0001,-0.0007,0.0103,0.0052,-0.5345,0
18699382,1.0000,0.0007,-0.0001,-0.0007,0.0123,0.0004,-0.5405,0
18699548,1.0000,0.0007,-0.0001,-0.0007,0.0047,0.0003,-0.5449,0
18699715,1.0000,0.0007,-0.0001,-0.0007,0.0037,0.0108,-0.5332,0
18699882,1.0000,0.0007,-0.0001,-0.0007,0.0036,0.0036,-0.5241,0
18700048,1.0000,0.0007,-0.0001,-0.0007,-0.0046,0.0112,-0.5277,0
18700215,1.0000,0.0007,-0.0001,-0.0007,-0.0001,0.0049,-0.5343,0
18700382,1.0000,0.0007,-0.0001,-0.0007,-0.0038,-0.0002,-0.5405,0
18700548,1.0000,0.0007,-0.0001,-0.0007,-0.0079,0.0080,-0.5373,0
18700715,1.0000,0.0007,-0.0001,-0.0008,-0.0089,-0.0074,-0.5586,0
18700882,1.0000,0.0007,-0.0001,-0.0007,-0.0088,0.0098,-0.5348,0
18701048,1.0000,0.0007,-0.0001,-0.0007,0.0028,-0.0019,-0.5276,0
18701215,1.0000,0.0007,-0.0001,-0.0007,0.0029,-0.0120,-0.5286,0
18701382,1.0000,0.0007,-0.0001,-0.0007,0.0068,0.0000,-0.5379,0
18701548,1.0000,0.0007,-0.0001,-0.0007,-0.0027,0.0153,-0.5588,0
18701715,1.0000,0.0007,-0.0001,-0.0007,-0.0026,0.0075,-0.5545,0
18701882,1.0000,0.0007,-0.0001,-0.0007,0.0024,0.0031,-0.5504,0
18702049,1.0000,0.0008,-0.0001,-0.0007,-0.0077,-0.0030,-0.5552,0
18702215,1.0000,0.0008,-0.0001,-0.0007,-0.0010,0.0048,-0.5487,0
18702382,1.0000,0.0008,-0.0001,-0.0007,-0.0042,-0.0005,-0.5254,0
18702549,1.0000,0.0008,-0.0001,-0.0007,0.0073,0.0101,-0.5432,0
18702715,1.0000,0.0008,-0.0001,-0.0007,-0.0001,0.0083,-0.5350,0
18702882,1.0000,0.0008,-0.0001,-0.0007,-0.0076,0.0170,-0.5475,0
18703049,1.0000,0.0008,-0.0001,-0.0007,-0.0053,-0.0067,-0.5367,0
18703215,1.0000,0.0008,-0.0001,-0.0007,-0.0051,-0.0059,-0.5464,0
18703382,1.0000,0.0008,-0.0001,-0.0007,-0.0152,-0.0003,-0.5434,0
18703549,1.0000,0.0008,-0.0001,-0.0007,0.0047,0.0069,-0.5500,0
18703715,1.0000,0.0008,-0.0001,-0.0007,-0.0071,-0.0044,-0.5261,0
18703882,1.0000,0.0008,-0.0001,-0.0007,0.0115,0.0137,-0.5580,0
18704049,1.0000,0.0008,-0.0001,-0.0007,0.0170,0.0061,-0.5404,0
18704215,1.0000,0.0008,-0.0001,-0.0007,0.0206,-0.0001,-0.5421,0
18704382,1.0000,0.0008,-0.0001,-0.0007,-0.0124,-0.0035,-0.5625,0
18704549,1.0000,0.0008,-0.0001,-0.0007,0.0018,-0.0084,-0.5698,0
18704715,1.0000,0.0008,-0.0001,-0.0007,-0.0008,0.0176,-0.5497,0
18704882,1.0000,0.0008,-0.0001,-0.0007,-0.0015,-0.0067,-0.5464,0
18705049,1.0000,0.0008,-0.0001,-0.0007,0.0176,-0.0042,-0.5386,0
18705215,1.0000,0.0008,-0.0001,-0.0007,-0.0083,0.0001,-0.5393,0
18705382,1.0000,0.0008,-0.0001,-0.0007,-0.0011,0.0074,-0.5539,0
18705549,1.0000,0.0008,-0.0001,-0.0006,0.0044,-0.0108,-0.5526,0
18705715,1.0000,0.0008,-0.0001,-0.0006,-0.0008,-0.0102,-0.5507,0
18705882,1.0000,0.0008,-0.0001,-0.0006,0.0082,-0.0056,-0.5386,0
18706049,1.0000,0.0008,-0.0001,-0.0006,0.0098,0.0096,-0.5197,0
18706215,1.0000,0.0008,-0.0001,-0.0007,-0.0037,0.0149,-0.5446,0
18706382,1.0000,0.0008,-0.0001,-0.0006,0.0102,0.0054,-0.5284,0
18706549,1.0000,0.0008,-0.0001,-0.0006,-0.0086,-0.0112,-0.5513,0
18706715,1.0000,0.0008,-0.0001,-0.0007,-0.0029,0.0065,-0.5444,0
18706882,1.0000,0.0008,-0.0001,-0.0007,-0.0013,0.0001,-0.5568,0
18707049,1.0000,0.0008,-0.0001,-0.0007,-0.0053,-0.0029,-0.5824,0
18707215,1.0000,0.0008,-0.0001,-0.0006,0.0024,-0.0070,-0.5535,0
18707382,1.0000,0.0008,-0.0001,-0.0007,-0.0007,-0.0048,-0.5331,0
18707549,1.0000,0.0008,-0.0001,-0.0006,0.0002,0.0150,-0.5522,0
18707715,1.0000,0.0008,-0.0001,-0.0006,-0.0049,-0.0014,-0.5228,0
18707882,1.0000,0.0008,-0.0001,-0.0006,0.0006,-0.0025,-0.5387,0
18708049,1.0000,0.0008,-0.0001,-0.0006,0.0024,-0.0065,-0.5407,0
18708215,1.0000,0.0008,-0.0001,-0.0006,0.0012,0.0098,-0.5520,0
18708382,1.0000,0.0008,-0.0001,-0.0006,0.0043,0.0204,-0.5496,0
18708549,1.0000,0.0008,-0.0001,-0.0006,0.0140,0.0017,-0.5402,0
18708715,1.0000,0.0008,-0.0001,-0.0006,0.0075,0.0105,-0.5491,0
18708882,1.0000,0.0008,-0.0001,-0.0006,0.0011,0.0037,-0.5418,0
18709049,1.0000,0.0008,-0.0001,-0.0006,0.0001,0.0055,-0.5432,0
18709215,1.0000,0.0008,-0.0001,-0.0006,-0.0070,-0.0095,-0.5504,0
18709382,1.0000,0.0008,-0.0001,-0.0006,-0.0202,-0.0021,-0.5567,0
18709549,1.0000,0.0008,-0.0001,-0.0006,0.0000,0.0108,-0.5419,0
18709715,1.0000,0.0008,-0.0001,-0.0006,0.0144,0.0048,-0.5152,0
18709882,1.0000,0.0008,-0.0001,-0.0006,-0.0127,-0.0061,-0.5505,0
18710049,1.0000,0.0008,-0.0001,-0.0006,-0.0121,-0.0051,-0.5490,0
18710215,1.0000,0.0008,-0.0001,-0.0006,-0.0185,-0.0003,-0.5546,0
18710382,1.0000,0.0009,-0.0001,-0.0006,-0.0207,-0.0173,-0.5149,0
18710549,1.0000,0.0009,-0.0001,-0.0006,-0.0022,-0.0027,-0.5652,0
18710715,1.0000,0.0009,-0.0001,-0.0006,-0.0048,0.0043,-0.5123,0
18710882,1.0000,0.0009,-0.0001,-0.0006,0.0043,0.0049,-0.5403,0
18711049,1.0000,0.0008,-0.0001,-0.0006,0.0170,0.0116,-0.5667,0
18711215,1.0000,0.0009,-0.0001,-0.0006,-0.0021,-0.0013,-0.5154,0
18711382,1.0000,0.0009,-0.0001,-0.0006,-0.0202,0.0016,-0.5629,0
18711549,1.0000,0.0009,-0.0001,-0.0006,-0.0096,-0.0069,-0.5461,0
18711715,1.0000,0.0009,-0.0001,-0.0006,-0.0073,-0.0001,-0.5346,0
18711882,1.0000,0.0009,-0.0001,-0.0006,0.0089,-0.0091,-0.5498,0
18712049,1.0000,0.0009,-0.0001,-0.0006,0.0021,0.0025,-0.5245,0
18712215,1.0000,0.0009,-0.0001,-0.0006,0.0083,0.0076,-0.5544,0
18712382,1.0000,0.0009,-0.0001,-0.0006,-0.0055,0.0094,-0.5137,0
18712549,1.0000,0.0008,-0.0002,-0.0006,-0.0067,-0.0004,-0.5585,0
18712715,1.0000,0.0008,-0.0002,-0.0006,0.0009,0.0002,-0.5570,0
18712882,1.0000,0.0008,-0.0002,-0.0006,-0.0010,0.0087,-0.5374,0
18713049,1.0000,0.0008,-0.0002,-0.0006,0.0098,-0.0072,-0.5500,0
18713215,1.0000,0.0008,-0.0002,-0.0006,0.0025,0.0081,-0.5407,0
18713382,1.0000,0.0008,-0.0002,-0.0006,0.0138,0.0131,-0.5175,0
18713549,1.0000,0.0008,-0.0002,-0.0006,-0.0128,0.0164,-0.5455,0
18713715,1.0000,0.0008,-0.0002,-0.0006,-0.0073,0.0001,-0.5713,0
18713882,1.0000,0.0008,-0.0002,-0.0006,-0.0209,-0.0231,-0.5399,0
18714049,1.0000,0.0008,-0.0002,-0.0006,0.0151,-0.0064,-0.5601,0
18714215,1.0000,0.0007,-0.0002,-0.0006,0.0129,0.0027,-0.5460,0
18714382,1.0000,0.0008,-0.0002,-0.0006,0.0159,0.0146,-0.5338,0
18714549,1.0000,0.0008,-0.0002,-0.0006,0.0041,0.0166,-0.5505,0
18714715,1.0000,0.0008,-0.0002,-0.0006,-0.0109,0.0056,-0.5449,0
18714882,1.0000,0.0008,-0.0002,-0.0006,-0.0161,-0.0017,-0.5318,0
18715049,1.0000,0.0008,-0.0002,-0.0006,-0.0023,-0.0185,-0.5602,0
18715215,1.0000,0.0008,-0.0002,-0.0006,0.0047,0.0088,-0.5502,0
18715382,1.0000,0.0008,-0.0002,-0.0007,0.0113,0.0035,-0.5371,0
18715549,1.0000,0.0008,-0.0002,-0.0007,0.0096,0.0218,-0.5295,0
18715715,1.0000,0.0008,-0.0002,-0.0006,-0.0015,0.0083,-0.5331,0
18715882,1.0000,0.0008,-0.0002,-0.0006,-0.0103,0.0038,-0.5403,0
18716049,1.0000,0.0008,-0.0002,-0.0007,-0.0095,-0.0006,-0.5699,0
18716215,1.0000,0.0008,-0.0002,-0.0007,0.0114,-0.0120,-0.5275,0
18716382,1.0000,0.0008,-0.0002,-0.0007,0.0010,-0.0084,-0.5374,0
18716549,1.0000,0.0008,-0.0002,-0.0007,0.0047,-0.0019,-0.5280,0
18716715,1.0000,0.0008,-0.0002,-0.0006,0.0016,0.0190,-0.5212,0
18716882,1.0000,0.0008,-0.0002,-0.0006,0.0059,0.0167,-0.5479,0
18717049,1.0000,0.0008,-0.0002,-0.0006,-0.0086,-0.0027,-0.5413,0
18717215,1.0000,0.0008,-0.0002,-0.0006,-0.0132,0.0010,-0.5512,0
18717382,1.0000,0.0008,-0.0002,-0.0006,-0.0047,-0.0113,-0.5617,0
18717549,1.0000,0.0008,-0.0002,-0.0006,0.0180,-0.0001,-0.5346,0
18717715,1.0000,0.0008,-0.0002,-0.0006,0.0130,0.0151,-0.5089,0
18717882,1.0000,0.0008,-0.0002,-0.0006,0.0101,0.0221,-0.5469,0
18718049,1.0000,0.0008,-0.0002,-0.0006,-0.0114,0.0060,-0.5530,0
18718215,1.0000,0.0008,-0.0002,-0.0006,-0.0120,-0.0108,-0.5469,0
18718382,1.0000,0.0008,-0.0002,-0.0006,-0.0094,-0.0112,-0.5513,0
18718549,1.0000,0.0008,-0.0002,-0.0006,-0.0091,-0.0117,-0.5498,0
18718716,1.0000,0.0008,-0.0002,-0.0006,0.0002,-0.0069,-0.5401,0
18718882,1.0000,0.0008,-0.0002,-0.0006,0.0228,0.0072,-0.5390,0
18719049,1.0000,0.0008,-0.0002,-0.0006,0.0072,0.0080,-0.5390,0
18719216,1.0000,0.0008,-0.0002,-0.0006,-0.0033,0.0051,-0.5471,0
18719382,1.0000,0.0008,-0.0002,-0.0006,-0.0136,-0.0082,-0.5576,0
18719549,1.0000,0.0008,-0.0002,-0.0006,-0.0127,-0.0155,-0.5713,0
18719716,1.0000,0.0008,-0.0002,-0.0006,-0.0033,-0.0087,-0.5316,0
18719882,1.0000,0.0008,-0.0002,-0.0006,0.0033,0.0097,-0.5447,0
18720049,1.0000,0.0008,-0.0002,-0.0006,0.0207,0.0163,-0.5156,0
18720216,1.0000,0.0008,-0.0002,-0.0006,0.0172,0.0118,-0.5265,0
18720382,1.0000,0.0008,-0.0002,-0.0006,0.0040,0.0012,-0.5221,0
18720549,1.0000,0.0008,-0.0002,-0.0006,-0.0093,-0.0040,-0.5710,0
18720716,1.0000,0.0008,-0.0002,-0.0006,-0.0224,-0.0080,-0.5383,0
18720882,1.0000,0.0008,-0.0002,-0.0006,-0.0122,-0.0097,-0.5411,0
18721049,1.0000,0.0008,-0.0002,-0.0006,0.0069,0.0015,-0.5447,0
18721216,1.0000,0.0008,-0.0002,-0.0006,0.0108,0.0200,-0.5345,0
18721382,1.0000,0.0008,-0.0002,-0.0006,0.0013,0.0116,-0.5337,0
18721549,1.0000,0.0008,-0.0002,-0.0006,0.0065,0.0046,-0.5495,0
18721716,1.0000,0.0008,-0.0002,-0.0006,-0.0117,0.0115,-0.5775,0
18721882,1.0000,0.0008,-0.0002,-0.0006,-0.0268,-0.0078,-0.5606,0
18722049,1.0000,0.0008,-0.0002,-0.0006,-0.0073,0.0023,-0.5506,0
18722216,1.0000,0.0008,-0.0002,-0.0006,-0.0033,0.0041,-0.5134,0
18722382,1.0000,0.0008,-0.0002,-0.0006,-0.0029,0.0090,-0.5174,0
18722549,1.0000,0.0008,-0.0002,-0.0006,0.0188,0.0151,-0.5209,0
18722716,1.0000,0.0008,-0.0002,-0.0006,0.0185,0.0067,-0.5100,0
18722882,1.0000,0.0008,-0.0002,-0.0006,-0.0191,-0.0029,-0.5424,0
18723049,1.0000,0.0008,-0.0002,-0.0006,-0.0252,-0.0055,-0.5442,0
18723216,1.0000,0.0008,-0.0002,-0.0006,-0.0062,-0.0049,-0.5600,0
18723382,1.0000,0.0008,-0.0002,-0.0006,-0.0012,0.0129,-0.5233,0
18723549,1.0000,0.0008,-0.0002,-0.0006,0.0043,0.0037,-0.5216,0
18723716,1.0000,0.0008,-0.0002,-0.0006,0.0314,0.0000,-0.5274,0
18723882,1.0000,0.0008,-0.0002,-0.0006,0.0005,0.0035,-0.5547,0
18724049,1.0000,0.0008,-0.0002,-0.0006,-0.0091,-0.0019,-0.5488,0
18724216,1.0000,0.0008,-0.0003,-0.0006,-0.0184,-0.0092,-0.5618,0
18724382,1.0000,0.0008,-0.0003,-0.0006,-0.0099,-0.0026,-0.5540,0
18724549,1.0000,0.0008,-0.0003,-0.0006,-0.0115,0.0057,-0.5566,0
18724716,1.0000,0.0008,-0.0003,-0.0006,0.0128,0.0119,-0.5552,0
18724882,1.0000,0.0008,-0.0003,-0.0006,0.0189,-0.0001,-0.5227,0
18725049,1.0000,0.0008,-0.0003,-0.0006,-0.0090,0.0086,-0.5339,0
18725216,1.0000,0.0008,-0.0002,-0.0006,-0.0041,-0.0047,-0.5670,0
18725382,1.0000,0.0008,-0.0002,-0.0006,-0.0086,-0.0072,-0.5326,0
18725549,1.0000,0.0008,-0.0002,-0.0006,-0.0207,-0.0025,-0.5497,0
18725716,1.0000,0.0008,-0.0002,-0.0006,-0.0131,-0.0051,-0.5176,0
18725882,1.0000,0.0008,-0.0003,-0.0006,0.0022,0.0100,-0.5211,0
18726049,1.0000,0.0008,-0.0002,-0.0006,0.0105,0.0049,-0.5348,0
18726216,1.0000,0.0008,-0.0002,-0.0006,0.0170,0.0059,-0.5411,0
18726382,1.0000,0.0008,-0.0002,-0.0006,-0.0259,-0.0084,-0.5299,0
18726549,1.0000,0.0008,-0.0002,-0.0006,-0.0267,0.0040,-0.5598,0
18726716,1.0000,0.0008,-0.0002,-0.0006,-0.0115,-0.0141,-0.5555,0
18726882,1.0000,0.0008,-0.0003,-0.0006,0.0009,0.0041,-0.5370,0
18727049,1.0000,0.0008,-0.0003,-0.0006,0.0270,0.0111,-0.5116,0
18727216,1.0000,0.0008,-0.0002,-0.0006,0.0146,0.0096,-0.5162,0
18727382,1.0000,0.0008,-0.0002,-0.0006,-0.0003,-0.0049,-0.5301,0
18727549,1.0000,0.0008,-0.0002,-0.0006,-0.0096,0.0016,-0.5793,0
18727716,1.0000,0.0008,-0.0002,-0.0006,-0.0150,-0.0146,-0.5464,0
18727882,1.0000,0.0008,-0.0002,-0.0006,-0.0242,0.0002,-0.5373,0
18728049,1.0000,0.0008,-0.0002,-0.0006,0.0052,-0.0039,-0.5465,0
18728216,1.0000,0.0008,-0.0002,-0.0006,0.0270,-0.0009,-0.5224,0
18728382,1.0000,0.0008,-0.0002,-0.0006,0.0176,0.0018,-0.5103,0
18728549,1.0000,0.0008,-0.0002,-0.0006,-0.0055,-0.0102,-0.5410,0
18728716,1.0000,0.0008,-0.0002,-0.0006,-0.0111,-0.0089,-0.5361,0
18728882,1.0000,0.0008,-0.0002,-0.0006,-0.0172,-0.0023,-0.5706,0
18729049,1.0000,0.0008,-0.0002,-0.0006,-0.0153,-0.0083,-0.5426,0
18729216,1.0000,0.0008,-0.0002,-0.0006,0.0097,0.0161,-0.5284,0
18729382,1.0000,0.0008,-0.0002,-0.0006,0.0000,0.0107,-0.5145,0
18729549,1.0000,0.0008,-0.0002,-0.0006,0.0167,0.0032,-0.5196,0
18729716,1.0000,0.0008,-0.0002,-0.0006,0.0140,0.0049,-0.5409,0
18729882,1.0000,0.0008,-0.0002,-0.0006,0.0016,-0.0008,-0.5497,0
18730049,1.0000,0.0008,-0.0002,-0.0006,-0.0100,-0.0012,-0.5632,0
18730216,1.0000,0.0008,-0.0002,-0.0006,-0.0125,-0.0088,-0.5630,0
18730382,1.0000,0.0008,-0.0002,-0.0006,-0.0146,-0.0083,-0.5544,0
18730549,1.0000,0.0008,-0.0002,-0.0006,0.0200,0.0075,-0.5366,0
18730716,1.0000,0.0008,-0.0002,-0.0006,0.0143,0.0061,-0.5127,0
18730882,1.0000,0.0008,-0.0002,-0.0006,0.0005,0.0087,-0.5497,0
18731049,1.0000,0.0008,-0.0002,-0.0006,-0.0037,0.0039,-0.5456,0
18731216,1.0000,0.0008,-0.0002,-0.0006,-0.0073,-0.0081,-0.5459,0
18731382,1.0000,0.0008,-0.0002,-0.0006,-0.0150,-0.0014,-0.5525,0
18731549,1.0000,0.0008,-0.0002,-0.0006,-0.0026,-0.0117,-0.5434,0
18731716,1.0000,0.0008,-0.0002,-0.0006,0.0112,0.0146,-0.5515,0
18731882,1.0000,0.0008,-0.0002,-0.0006,0.0147,0.0119,-0.5400,0
18732049,1.0000,0.0008,-0.0002,-0.0006,0.0056,0.0081,-0.5434,0
18732216,1.0000,0.0008,-0.0002,-0.0006,-0.0063,0.0025,-0.5465,0
18732382,1.0000,0.0008,-0.0002,-0.0006,-0.0259,-0.0069,-0.5594,0
18732549,1.0000,0.0008,-0.0002,-0.0006,-0.0257,-0.0190,-0.5469,0
18732716,1.0000,0.0008,-0.0002,-0.0006,-0.0091,-0.0012,-0.5517,0
18732882,1.0000,0.0008,-0.0002,-0.0006,-0.0023,0.0114,-0.5303,0
18733049,1.0000,0.0008,-0.0002,-0.0006,0.0087,0.0064,-0.5179,0
18733216,1.0000,0.0008,-0.0002,-0.0006,0.0073,0.0023,-0.5080,0
18733382,1.0000,0.0008,-0.0002,-0.0006,-0.0013,-0.0127,-0.5342,0
18733549,1.0000,0.0008,-0.0002,-0.0006,-0.0068,-0.0256,-0.5679,0
18733716,1.0000,0.0008,-0.0002,-0.0006,-0.0125,-0.0067,-0.5555,0
18733882,1.0000,0.0008,-0.0002,-0.0006,-0.0147,0.0074,-0.5437,0
18734049,1.0000,0.0008,-0.0002,-0.0006,-0.0032,0.0059,-0.5291,0
18734216,1.0000,0.0008,-0.0002,-0.0006,0.0090,0.0173,-0.5187,0
18734382,1.0000,0.0008,-0.0002,-0.0006,0.0175,0.0299,-0.5128,0
18734549,1.0000,0.0008,-0.0002,-0.0006,0.0059,0.0028,-0.5347,0
18734716,1.0000,0.0008,-0.0002,-0.0006,-0.0187,0.0074,-0.5422,0
18734882,1.0000,0.0008,-0.0002,-0.0005,-0.0092,0.0017,-0.5519,0
18735049,1.0000,0.0008,-0.0002,-0.0005,-0.0053,0.0042,-0.5547,0
18735216,1.0000,0.0008,-0.0002,-0.0005,-0.0018,0.0019,-0.5395,0
18735383,1.0000,0.0008,-0.0002,-0.0005,0.0087,-0.0057,-0.5261,0
18735549,1.0000,0.0008,-0.0002,-0.0005,0.0058,0.0110,-0.5315,0
18735716,1.0000,0.0008,-0.0002,-0.0005,-0.0201,-0.0089,-0.5531,0
18735883,1.0000,0.0008,-0.0002,-0.0005,-0.0027,-0.0051,-0.5746,0
18736049,1.0000,0.0008,-0.0002,-0.0005,-0.0134,-0.0048,-0.5415,0
18736216,1.0000,0.0008,-0.0002,-0.0005,-0.0069,-0.0098,-0.5561,0
18736383,1.0000,0.0008,-0.0002,-0.0005,0.0001,0.0092,-0.5263,0
18736549,1.0000,0.0008,-0.0002,-0.0005,0.0151,0.0142,-0.5318,0
18736716,1.0000,0.0008,-0.0002,-0.0005,0.0275,-0.0119,-0.5425,0
18736883,1.0000,0.0008,-0.0002,-0.0005,0.0147,0.0042,-0.5298,0
18737049,1.0000,0.0008,-0.0002,-0.0005,-0.0093,-0.0091,-0.5371,0
18737216,1.0000,0.0008,-0.0002,-0.0005,-0.0223,-0.0059,-0.5638,0
18737383,1.0000,0.0008,-0.0002,-0.0005,-0.0185,0.0025,-0.5425,0
18737549,1.0000,0.0008,-0.0002,-0.0005,0.0038,0.0145,-0.5385,0
18737716,1.0000,0.0008,-0.0002,-0.0005,0.0085,0.0001,-0.5251,0
18737883,1.0000,0.0008,-0.0002,-0.0005,0.0169,0.0142,-0.5304,0
18738049,1.0000,0.0008,-0.0002,-0.0005,-0.0043,0.0003,-0.5344,0
18738216,1.0000,0.0009,-0.0002,-0.0005,-0.0004,-0.0017,-0.5516,0
18738383,1.0000,0.0009,-0.0002,-0.0005,-0.0031,-0.0098,-0.5552,0
18738549,1.0000,0.0009,-0.0002,-0.0005,0.0082,-0.0082,-0.5428,0
18738716,1.0000,0.0009,-0.0002,-0.0005,-0.0070,-0.0013,-0.5607,0
18738883,1.0000,0.0009,-0.0002,-0.0005,0.0043,0.0071,-0.5280,0
18739049,1.0000,0.0009,-0.0002,-0.0005,0.0058,0.0047,-0.5267,0
18739216,1.0000,0.0009,-0.0002,-0.0005,-0.0024,0.0125,-0.5397,0
18739383,1.0000,0.0009,-0.0002,-0.0005,0.0013,0.0122,-0.5547,0
18739549,1.0000,0.0009,-0.0002,-0.0005,-0.0051,-0.0076,-0.5697,0
18739716,1.0000,0.0009,-0.0002,-0.0005,-0.0069,-0.0079,-0.5539,0
18739883,1.0000,0.0009,-0.0002,-0.0005,0.0046,-0.0037,-0.5276,0
18740049,1.0000,0.0009,-0.0002,-0.0005,0.0144,0.0022,-0.5442,0
18740216,1.0000,0.0009,-0.0002,-0.0005,0.0151,0.0115,-0.5391,0
18740383,1.0000,0.0009,-0.0002,-0.0005,0.0098,0.0008,-0.5329,0
18740549,1.0000,0.0009,-0.0002,-0.0005,-0.0077,0.0029,-0.5407,0
18740716,1.0000,0.0009,-0.0002,-0.0005,-0.0220,-0.0008,-0.5470,0
18740883,1.0000,0.0009,-0.0002,-0.0005,-0.0135,-0.0098,-0.5593,0
18741049,1.0000,0.0009,-0.0002,-0.0005,0.0086,-0.0171,-0.5301,0
18741216,1.0000,0.0009,-0.0002,-0.0005,0.0137,-0.0013,-0.5149,0
18741383,1.0000,0.0009,-0.0002,-0.0005,0.0171,0.0055,-0.5218,0
18741549,1.0000,0.0009,-0.0002,-0.0005,-0.0067,0.0045,-0.5494,0
18741716,1.0000,0.0009,-0.0002,-0.0005,-0.0218,0.0134,-0.5244,0
18741883,1.0000,0.0009,-0.0002,-0.0005,-0.0073,0.0063,-0.5767,0
18742049,1.0000,0.0009,-0.0002,-0.0005,-0.0264,-0.0096,-0.5437,0
18742216,1.0000,0.0009,-0.0002,-0.0005,-0.0041,-0.0018,-0.5388,0
18742383,1.0000,0.0009,-0.0002,-0.0005,0.0196,-0.0090,-0.5375,0
18742549,1.0000,0.0009,-0.0002,-0.0005,0.0154,0.0088,-0.5435,0
18742716,1.0000,0.0009,-0.0002,-0.0005,-0.0011,0.0050,-0.5443,0
18742883,1.0000,0.0009,-0.0002,-0.0005,-0.0044,-0.0025,-0.5173,0
18743049,1.0000,0.0009,-0.0002,-0.0005,-0.0046,-0.0072,-0.5870,0
18743216,1.0000,0.0009,-0.0002,-0.0004,-0.0220,0.0072,-0.5139,0
18743383,1.0000,0.0009,-0.0002,-0.0005,0.0101,0.0097,-0.5273,0
18743549,1.0000,0.0009,-0.0002,-0.0005,0.0183,0.0070,-0.5573,0
18743716,1.0000,0.0009,-0.0002,-0.0005,0.0106,-0.0017,-0.4972,0
18743883,1.0000,0.0009,-0.0002,-0.0005,0.0034,0.0119,-0.5390,0
18744049,1.0000,0.0009,-0.0002,-0.0005,-0.0130,0.0152,-0.5765,0
18744216,1.0000,0.0009,-0.0002,-0.0005,-0.0200,-0.0164,-0.5269,0
18744383,1.0000,0.0009,-0.0002,-0.0005,-0.0071,-0.0120,-0.5502,0
18744549,1.0000,0.0009,-0.0002,-0.0005,-0.0087,-0.0041,-0.5546,0
18744716,1.0000,0.0009,-0.0002,-0.0005,0.0075,-0.0009,-0.5421,0
18744883,1.0000,0.0009,-0.0002,-0.0005,0.0047,0.0101,-0.5283,0
18745049,1.0000,0.0009,-0.0002,-0.0005,0.0078,0.0165,-0.5410,0
18745216,1.0000,0.0009,-0.0002,-0.0005,-0.0067,-0.0036,-0.5432,0
18745383,1.0000,0.0009,-0.0002,-0.0004,-0.0149,-0.0077,-0.5612,0
18745549,1.0000,0.0009,-0.0002,-0.0004,-0.0068,-0.0172,-0.5291,0
18745716,1.0000,0.0009,-0.0002,-0.0004,0.0091,0.0020,-0.5081,0
18745883,1.0000,0.0009,-0.0002,-0.0004,0.0030,0.0170,-0.5537,0
18746049,1.0000,0.0009,-0.0002,-0.0004,0.0193,0.0244,-0.5259,0
18746216,1.0000,0.0009,-0.0002,-0.0004,0.0019,0.0040,-0.5326,0
18746383,1.0000,0.0009,-0.0002,-0.0004,-0.0088,-0.0040,-0.5390,0
18746549,1.0000,0.0009,-0.0002,-0.0004,-0.0145,-0.0068,-0.5556,0
18746716,1.0000,0.0009,-0.0002,-0.0004,-0.0003,-0.0131,-0.5526,0
18746883,1.0000,0.0009,-0.0002,-0.0004,0.0097,-0.0002,-0.5383,0
18747049,1.0000,0.0009,-0.0002,-0.0004,0.0075,0.0094,-0.5437,0
18747216,1.0000,0.0009,-0.0002,-0.0004,0.0008,0.0115,-0.5287,0
18747383,1.0000,0.0009,-0.0002,-0.0004,0.0116,-0.0038,-0.5376,0
18747549,1.0000,0.0009,-0.0002,-0.0004,-0.0128,-0.0088,-0.5480,0
18747716,1.0000,0.0009,-0.0002,-0.0004,-0.0140,-0.0221,-0.5493,0
18747883,1.0000,0.0009,-0.0002,-0.0004,-0.0059,-0.0150,-0.5679,0
18748049,1.0000,0.0009,-0.0002,-0.0004,0.0171,0.0053,-0.5307,0
18748216,1.0000,0.0009,-0.0002,-0.0004,0.0136,-0.0019,-0.5316,0
18748383,1.0000,0.0009,-0.0002,-0.0004,0.0155,0.0186,-0.5319,0
18748549,1.0000,0.0009,-0.0002,-0.0004,-0.0115,0.0011,-0.5418,0
18748716,1.0000,0.0009,-0.0002,-0.0004,-0.0153,-0.0040,-0.5582,0
18748883,1.0000,0.0009,-0.0002,-0.0004,-0.0231,-0.0018,-0.5409,0
18749049,1.0000,0.0009,-0.0002,-0.0004,-0.0112,0.0035,-0.5646,0
18749216,1.0000,0.0009,-0.0002,-0.0004,-0.0011,0.0009,-0.5543,0
18749383,1.0000,0.0009,-0.0002,-0.0004,0.0063,0.0163,-0.5285,0
18749549,1.0000,0.0009,-0.0002,-0.0004,-0.0014,0.0183,-0.5446,0
18749716,1.0000,0.0009,-0.0002,-0.0004,-0.0042,0.0009,-0.5431,0
18749883,1.0000,0.0009,-0.0002,-0.0004,-0.0027,-0.0021,-0.5445,0
18750049,1.0000,0.0009,-0.0002,-0.0004,-0.0041,-0.0076,-0.5667,0
18750216,1.0000,0.0009,-0.0002,-0.0004,-0.0113,-0.0178,-0.5249,0
18750383,1.0000,0.0009,-0.0002,-0.0004,-0.0000,0.0136,-0.5459,0
18750549,1.0000,0.0009,-0.0002,-0.0004,0.0177,0.0183,-0.5303,0
18750716,1.0000,0.0009,-0.0002,-0.0004,0.0043,0.0069,-0.5235,0
18750883,1.0000,0.0009,-0.0002,-0.0004,-0.0010,-0.0007,-0.5550,0
18751049,1.0000,0.0009,-0.0002,-0.0004,-0.0163,-0.0045,-0.5628,0
18751216,1.0000,0.0009,-0.0002,-0.0004,-0.0135,0.0056,-0.5532,0
18751383,1.0000,0.0009,-0.0002,-0.0004,-0.0093,0.0005,-0.5676,0
18751549,1.0000,0.0009,-0.0002,-0.0004,-0.0067,-0.0085,-0.5276,0
18751716,1.0000,0.0009,-0.0002,-0.0004,0.0092,0.0128,-0.5266,0
18751883,1.0000,0.0009,-0.0002,-0.0004,0.0074,0.0101,-0.5475,0
18752050,1.0000,0.0009,-0.0002,-0.0004,-0.0044,-0.0001,-0.5437,0
18752216,1.0000,0.0009,-0.0002,-0.0004,-0.0210,-0.0178,-0.5830,0
18752383,1.0000,0.0009,-0.0002,-0.0004,-0.0193,-0.0035,-0.5645,0
18752550,1.0000,0.0008,-0.0002,-0.0005,-0.0020,0.0044,-0.5500,0
18752716,1.0000,0.0008,-0.0002,-0.0005,0.0098,0.0073,-0.5605,0
18752883,1.0000,0.0008,-0.0002,-0.0005,0.0145,0.0069,-0.5036,0
18753050,1.0000,0.0008,-0.0002,-0.0005,-0.0018,0.0131,-0.5329,0
18753216,1.0000,0.0008,-0.0002,-0.0005,-0.0010,-0.0006,-0.5424,0
18753383,1.0000,0.0008,-0.0002,-0.0005,-0.0242,-0.0142,-0.5427,0
18753550,1.0000,0.0008,-0.0002,-0.0005,-0.0182,-0.0019,-0.5511,0
18753716,1.0000,0.0008,-0.0002,-0.0005,-0.0083,0.0038,-0.5411,0
18753883,1.0000,0.0008,-0.0002,-0.0005,0.0069,0.0029,-0.5161,0
18754050,1.0000,0.0008,-0.0002,-0.0005,0.0056,0.0061,-0.5359,0
18754216,1.0000,0.0008,-0.0002,-0.0005,0.0049,0.0006,-0.5248,0
18754383,1.0000,0.0008,-0.0002,-0.0005,-0.0151,0.0015,-0.5602,0
18754550,1.0000,0.0008,-0.0001,-0.0005,-0.0141,-0.0139,-0.5387,0
18754716,1.0000,0.0008,-0.0001,-0.0005,-0.0097,0.0010,-0.5538,0
18754883,1.0000,0.0008,-0.0001,-0.0005,-0.0057,-0.0002,-0.5334,0
18755050,1.0000,0.0008,-0.0001,-0.0005,0.0082,0.0007,-0.5428,0
18755216,1.0000,0.0008,-0.0001,-0.0005,0.0299,0.0119,-0.5415,0
18755383,1.0000,0.0008,-0.0001,-0.0005,0.0148,-0.0060,-0.5247,0
18755550,1.0000,0.0008,-0.0001,-0.0005,0.0044,0.0021,-0.5514,0
18755716,1.0000,0.0009,-0.0001,-0.0005,-0.0135,-0.0125,-0.5419,0
18755883,1.0000,0.0008,-0.0001,-0.0006,-0.0322,-0.0139,-0.5508,0
18756050,1.0000,0.0009,-0.0001,-0.0006,-0.0103,0.0065,-0.5781,0
18756216,1.0000,0.0009,-0.0002,-0.0006,0.0053,0.0148,-0.5402,0
18756383,1.0000,0.0009,-0.0002,-0.0006,0.0100,0.0269,-0.5243,0
18756550,1.0000,0.0008,-0.0001,-0.0006,0.0147,0.0116,-0.5326,0
18756716,1.0000,0.0008,-0.0001,-0.0006,-0.0081,0.0013,-0.5280,0
18756883,1.0000,0.0008,-0.0001,-0.0006,-0.0033,-0.0021,-0.5567,0
18757050,1.0000,0.0009,-0.0001,-0.0006,-0.0178,-0.0031,-0.5603,0
18757216,1.0000,0.0009,-0.0001,-0.0006,0.0022,-0.0038,-0.5433,0
18757383,1.0000,0.0009,-0.0001,-0.0006,0.0120,0.0109,-0.5373,0
18757550,1.0000,0.0009,-0.0001,-0.0006,-0.0031,0.0214,-0.5284,0
18757716,1.0000,0.0009,-0.0001,-0.0006,0.0152,0.0070,-0.5331,0
18757883,1.0000,0.0009,-0.0001,-0.0006,-0.0030,-0.0120,-0.5414,0
18758050,1.0000,0.0009,-0.0001,-0.0006,-0.0178,-0.0046,-0.5580,0
18758216,1.0000,0.0009,-0.0001,-0.0006,-0.0109,-0.0163,-0.5325,0
18758383,1.0000,0.0009,-0.0001,-0.0006,-0.0141,-0.0085,-0.5327,0
18758550,1.0000,0.0009,-0.0001,-0.0006,0.0061,0.0133,-0.5349,0
18758716,1.0000,0.0009,-0.0001,-0.0006,0.0040,0.0116,-0.5288,0
18758883,1.0000,0.0009,-0.0001,-0.0006,0.0079,0.0117,-0.5287,0
18759050,1.0000,0.0009,-0.0001,-0.0006,0.0063,0.0113,-0.5490,0
18759216,1.0000,0.0009,-0.0001,-0.0006,-0.0087,-0.0018,-0.5610,0
18759383,1.0000,0.0009,-0.0001,-0.0006,0.0033,-0.0072,-0.5449,0
18759550,1.0000,0.0009,-0.0001,-0.0006,-0.0014,-0.0094,-0.5444,0
18759716,1.0000,0.0009,-0.0001,-0.0006,-0.0007,0.0051,-0.5506,0
18759883,1.0000,0.0009,-0.0001,-0.0006,0.0013,-0.0044,-0.5378,0
18760050,1.0000,0.0009,-0.0001,-0.0006,0.0057,0.0154,-0.5484,0
18760216,1.0000,0.0009,-0.0001,-0.0006,0.0082,0.0179,-0.5459,0
18760383,1.0000,0.0009,-0.0001,-0.0006,0.0055,-0.0028,-0.5393,0
18760550,1.0000,0.0009,-0.0001,-0.0006,-0.0045,-0.0215,-0.5775,0
18760716,1.0000,0.0009,-0.0001,-0.0006,0.0010,0.0006,-0.5487,0
18760883,1.0000,0.0009,-0.0001,-0.0006,-0.0022,-0.0043,-0.5406,0
18761050,1.0000,0.0009,-0.0001,-0.0006,0.0053,0.0097,-0.5567,0
18761216,1.0000,0.0009,-0.0001,-0.0006,0.0037,0.0088,-0.5561,0
18761383,1.0000,0.0009,-0.0001,-0.0006,-0.0042,0.0042,-0.5570,0
18761550,1.0000,0.0009,-0.0001,-0.0006,-0.0045,-0.0101,-0.5472,0
18761716,1.0000,0.0009,-0.0001,-0.0006,0.0182,-0.0215,-0.5247,0
18761883,1.0000,0.0009,-0.0001,-0.0006,-0.0017,-0.0187,-0.5311,0
18762050,1.0000,0.0009,-0.0001,-0.0006,-0.0014,0.0108,-0.5071,0
18762216,1.0000,0.0009,-0.0001,-0.0006,0.0080,0.0144,-0.5317,0
18762383,1.0000,0.0009,-0.0001,-0.0006,0.0114,0.0064,-0.5576,0
18762550,1.0000,0.0009,-0.0001,-0.0006,-0.0125,-0.0037,-0.5524,0
18762716,1.0000,0.0009,-0.0001,-0.0006,0.0062,0.0063,-0.5635,0
18762883,1.0000,0.0009,-0.0001,-0.0006,-0.0066,-0.0133,-0.5445,0
18763050,1.0000,0.0009,-0.0001,-0.0006,-0.0090,-0.0005,-0.5458,0
18763216,1.0000,0.0009,-0.0001,-0.0006,0.0029,0.0021,-0.5176,0
18763383,1.0000,0.0009,-0.0001,-0.0006,0.0092,0.0021,-0.5517,0
18763550,1.0000,0.0010,-0.0001,-0.0006,0.0137,0.0072,-0.5403,0
18763716,1.0000,0.0010,-0.0001,-0.0006,0.0077,0.0033,-0.5459,0
18763883,1.0000,0.0010,-0.0001,-0.0006,-0.0038,-0.0143,-0.5374,0
18764050,1.0000,0.0010,-0.0001,-0.0006,-0.0045,-0.0094,-0.5526,0
18764216,1.0000,0.0010,-0.0001,-0.0006,0.0045,-0.0055,-0.5459,0
18764383,1.0000,0.0010,-0.0001,-0.0006,0.0120,0.0081,-0.5231,0
18764550,1.0000,0.0010,-0.0001,-0.0006,0.0031,-0.0021,-0.5175,0
18764716,1.0000,0.0010,-0.0001,-0.0006,-0.0064,-0.0038,-0.5436,0
18764883,1.0000,0.0010,-0.0001,-0.0006,-0.0046,-0.0143,-0.5420,0
18765050,1.0000,0.0010,-0.0001,-0.0006,-0.0080,-0.0134,-0.5378,0
18765216,1.0000,0.0010,-0.0001,-0.0006,-0.0093,-0.0032,-0.5484,0
18765383,1.0000,0.0010,-0.0001,-0.0006,-0.0174,-0.0075,-0.5356,0
18765550,1.0000,0.0010,-0.0000,-0.0006,-0.0003,-0.0002,-0.5309,0
18765716,1.0000,0.0010,-0.0000,-0.0006,0.0013,0.0092,-0.5418,0
18765883,1.0000,0.0010,-0.0000,-0.0006,0.0039,-0.0030,-0.5413,0
18766050,1.0000,0.0010,-0.0000,-0.0006,-0.0016,0.0011,-0.5695,0
18766216,1.0000,0.0010,-0.0000,-0.0006,-0.0093,-0.0115,-0.5441,0
18766383,1.0000,0.0010,-0.0000,-0.0006,0.0021,-0.0162,-0.5583,0
18766550,1.0000,0.0010,-0.0000,-0.0006,-0.0005,-0.0042,-0.5405,0
18766716,1.0000,0.0010,-0.0001,-0.0006,0.0014,0.0063,-0.5530,0
18766883,1.0000,0.0010,-0.0001,-0.0006,0.0220,0.0039,-0.5475,0
18767050,1.0000,0.0010,-0.0001,-0.0006,-0.0016,0.0037,-0.5531,0
18767216,1.0000,0.0010,-0.0001,-0.0006,-0.0053,-0.0059,-0.5317,0
18767383,1.0000,0.0010,-0.0001,-0.0006,-0.0058,-0.0135,-0.5446,0
18767550,1.0000,0.0010,-0.0001,-0.0006,-0.0077,0.0094,-0.5497,0
18767716,1.0000,0.0010,-0.0001,-0.0006,0.0128,-0.0040,-0.5381,0
18767883,1.0000,0.0010,-0.0001,-0.0006,0.0118,0.0045,-0.5403,0
18768050,1.0000,0.0010,-0.0001,-0.0006,0.0153,0.0087,-0.5459,0
18768216,1.0000,0.0010,-0.0001,-0.0006,0.0054,0.0006,-0.5398,0
18768383,1.0000,0.0010,-0.0001,-0.0006,-0.0105,0.0021,-0.5414,0
18768550,1.0000,0.0010,-0.0001,-0.0006,-0.0143,-0.0013,-0.5441,0
18768717,1.0000,0.0010,-0.0001,-0.0006,0.0072,-0.0132,-0.5363,0
18768883,1.0000,0.0010,-0.0001,-0.0006,-0.0028,-0.0040,-0.5191,0
18769050,1.0000,0.0010,-0.0001,-0.0007,0.0038,-0.0012,-0.5330,0
18769217,1.0000,0.0010,-0.0001,-0.0007,0.0010,0.0096,-0.5589,0
18769383,1.0000,0.0010,-0.0001,-0.0007,-0.0012,-0.0100,-0.5382,0
18769550,1.0000,0.0010,-0.0001,-0.0007,-0.0148,-0.0053,-0.5303,0
18769717,1.0000,0.0010,-0.0001,-0.0007,-0.0034,-0.0023,-0.5465,0
18769883,1.0000,0.0010,-0.0001,-0.0007,0.0022,-0.0001,-0.5369,0
18770050,1.0000,0.0010,-0.0001,-0.0007,0.0054,0.0066,-0.5339,0
18770217,1.0000,0.0010,-0.0001,-0.0007,0.0118,-0.0005,-0.5375,0
18770383,1.0000,0.0010,-0.0001,-0.0007,0.0003,0.0089,-0.5251,0
18770550,1.0000,0.0010,-0.0001,-0.0007,0.0035,0.0037,-0.5314,0
18770717,1.0000,0.0010,-0.0001,-0.0007,-0.0064,-0.0098,-0.5396,0
18770883,1.0000,0.0010,-0.0001,-0.0007,-0.0010,-0.0184,-0.5540,0
18771050,1.0000,0.0010,-0.0001,-0.0007,-0.0068,-0.0033,-0.5493,0
18771217,1.0000,0.0010,-0.0001,-0.0007,0.0053,0.0019,-0.5443,0
18771383,1.0000,0.0010,-0.0001,-0.0007,0.0031,0.0192,-0.5275,0
18771550,1.0000,0.0010,-0.0000,-0.0007,0.0042,-0.0115,-0.5452,0
18771717,1.0000,0.0010,-0.0000,-0.0007,0.0020,-0.0047,-0.5467,0
18771883,1.0000,0.0010,-0.0000,-0.0007,-0.0071,-0.0100,-0.5362,0
18772050,1.0000,0.0010,-0.0000,-0.0007,-0.0091,-0.0107,-0.5555,0
18772217,1.0000,0.0010,-0.0000,-0.0007,-0.0071,-0.0057,-0.5557,0
18772383,1.0000,0.0010,-0.0000,-0.0007,-0.0045,-0.0029,-0.5404,0
18772550,1.0000,0.0008,-0.0001,-0.0006,0.0126,0.0045,-0.5167,0
18772717,1.0000,0.0009,-0.0001,-0.0006,0.0073,0.0011,-0.5148,0
18772883,1.0000,0.0009,-0.0001,-0.0006,-0.0182,-0.0037,-0.5528,0
18773050,1.0000,0.0009,-0.0001,-0.0006,-0.0081,-0.0124,-0.5394,0
18773217,1.0000,0.0009,-0.0001,-0.0006,-0.0105,-0.0080,-0.5388,0
18773383,1.0000,0.0009,-0.0001,-0.0006,0.0064,-0.0069,-0.5179,0
18773550,1.0000,0.0009,-0.0001,-0.0006,0.0152,0.0098,-0.5377,0
18773717,1.0000,0.0009,-0.0001,-0.0006,0.0154,0.0059,-0.5233,0
18773883,1.0000,0.0009,-0.0001,-0.0006,0.0050,0.0102,-0.5443,0
18774050,1.0000,0.0009,-0.0001,-0.0006,-0.0025,0.0074,-0.5578,0
18774217,1.0000,0.0009,-0.0001,-0.0006,-0.0099,-0.0045,-0.5582,0
18774383,1.0000,0.0009,-0.0001,-0.0006,0.0021,-0.0083,-0.5446,0
18774550,1.0000,0.0009,-0.0001,-0.0006,-0.0019,-0.0193,-0.5316,0
18774717,1.0000,0.0009,-0.0001,-0.0006,0.0094,0.0009,-0.5347,0
18774883,1.0000,0.0009,-0.0001,-0.0006,0.0083,0.0114,-0.5358,0
18775050,1.0000,0.0009,-0.0001,-0.0006,0.0039,0.0081,-0.5385,0
18775217,1.0000,0.0009,-0.0001,-0.0006,-0.0119,0.0031,-0.5605,0
18775383,1.0000,0.0009,-0.0001,-0.0006,-0.0093,-0.0179,-0.5493,0
18775550,1.0000,0.0009,-0.0001,-0.0006,-0.0061,-0.0180,-0.5437,0
18775717,1.0000,0.0009,-0.0001,-0.0006,-0.0032,0.0028,-0.5492,0
18775883,1.0000,0.0009,-0.0001,-0.0006,0.0220,0.0169,-0.5326,0
18776050,1.0000,0.0009,-0.0001,-0.0006,0.0119,0.0105,-0.5168,0
18776217,1.0000,0.0009,-0.0001,-0.0006,0.0023,0.0084,-0.5332,0
18776383,1.0000,0.0009,-0.0001,-0.0006,-0.0147,-0.0021,-0.5554,0
18776550,1.0000,0.0009,-0.0001,-0.0006,-0.0066,-0.0086,-0.5618,0
18776717,1.0000,0.0009,-0.0001,-0.0006,-0.0126,-0.0208,-0.5558,0
18776883,1.0000,0.0009,-0.0001,-0.0006,-0.0024,0.0011,-0.5471,0
18777050,1.0000,0.0009,-0.0001,-0.0006,-0.0059,-0.0063,-0.5401,0
18777217,1.0000,0.0009,-0.0001,-0.0006,0.0047,0.0145,-0.5191,0
18777383,1.0000,0.0009,-0.0001,-0.0006,-0.0120,-0.0059,-0.5447,0
18777550,1.0000,0.0009,-0.0001,-0.0006,-0.0277,-0.0162,-0.5457,0
18777717,1.0000,0.0009,-0.0001,-0.0006,-0.0201,-0.0096,-0.5587,0
18777883,1.0000,0.0009,-0.0001,-0.0006,-0.0069,-0.0024,-0.5587,0
18778050,1.0000,0.0009,-0.0001,-0.0006,0.0112,0.0057,-0.5544,0
18778217,1.0000,0.0009,-0.0001,-0.0006,0.0144,0.0129,-0.5230,0
18778383,1.0000,0.0009,-0.0001,-0.0006,0.0027,0.0131,-0.5414,0
18778550,1.0000,0.0009,-0.0001,-0.0006,0.0091,0.0083,-0.5484,0
18778717,1.0000,0.0009,-0.0001,-0.0006,0.0054,0.0087,-0.5365,0
18778883,1.0000,0.0009,-0.0001,-0.0006,0.0011,-0.0200,-0.5469,0
18779050,1.0000,0.0009,-0.0001,-0.0006,0.0105,-0.0108,-0.5352,0
18779217,1.0000,0.0009,-0.0001,-0.0006,0.0049,-0.0066,-0.5381,0
18779383,1.0000,0.0009,-0.0001,-0.0006,0.0027,0.0014,-0.5623,0
18779550,1.0000,0.0009,-0.0001,-0.0006,-0.0016,-0.0007,-0.5357,0
18779717,1.0000,0.0009,-0.0001,-0.0006,-0.0021,-0.0122,-0.5409,0
18779883,1.0000,0.0009,-0.0001,-0.0006,-0.0070,-0.0174,-0.5634,0
18780050,1.0000,0.0009,-0.0001,-0.0006,0.0023,-0.0219,-0.5663,0
18780217,1.0000,0.0009,-0.0001,-0.0006,0.0049,0.0049,-0.5339,0
18780383,0.9100,0.0009,0.0003,0.4146,0.0099,0.0067,-0.5398,0
18780550,0.9100,0.0009,0.0003,0.4145,-0.0010,0.0062,-0.5298,0
18780717,0.9100,0.0009,0.0003,0.4146,0.0064,0.0122,-0.5493,0
18780883,0.9100,0.0009,0.0003,0.4146,0.0005,-0.0033,-0.5449,0
18781050,1.0000,0.0009,-0.0000,0.0000,-0.0062,-0.0058,-0.5345,0
18781217,1.0000,0.0009,-0.0000,-0.0000,-0.0037,-0.0045,-0.5455,0
18781383,1.0000,0.0009,-0.0000,-0.0000,-0.0145,-0.0210,-0.5452,0
18781550,1.0000,0.0009,-0.0000,-0.0000,-0.0002,0.0071,-0.5112,0
18781717,1.0000,0.0009,-0.0000,-0.0000,0.0103,0.0057,-0.5379,0
18781883,1.0000,0.0009,-0.0001,0.0000,-0.0039,-0.0115,-0.5534,0
18782050,1.0000,0.0009,-0.0000,-0.0000,-0.0057,-0.0003,-0.5268,0
18782217,1.0000,0.0009,-0.0000,-0.0000,-0.0113,-0.0144,-0.5559,0
18782383,1.0000,0.0009,-0.0001,-0.0000,-0.0023,-0.0152,-0.5534,0
18782550,1.0000,0.0009,-0.0001,-0.0000,-0.0040,-0.0110,-0.5544,0
18782717,1.0000,0.0009,-0.0001,0.0000,0.0121,0.0107,-0.5328,0
18782883,1.0000,0.0009,-0.0001,0.0000,0.0171,0.0111,-0.5253,0
18783050,1.0000,0.0009,-0.0000,0.0000,-0.0017,0.0032,-0.5243,0
18783217,1.0000,0.0009,-0.0000,0.0000,0.0101,-0.0038,-0.5565,0
18783383,1.0000,0.0009,-0.0000,0.0000,-0.0161,-0.0128,-0.5707,0
18783550,1.0000,0.0009,-0.0000,0.0000,-0.0214,-0.0024,-0.5571,0
18783717,1.0000,0.0009,-0.0000,0.0000,-0.0009,-0.0058,-0.5125,0
18783883,1.0000,0.0009,-0.0000,0.0000,-0.0001,-0.0069,-0.5338,0
18784050,1.0000,0.0009,-0.0000,0.0000,0.0003,-0.0045,-0.5206,0
18784217,1.0000,0.0009,-0.0000,0.0000,-0.0001,-0.0147,-0.5508,0
18784383,1.0000,0.0009,-0.0000,0.0000,0.0038,-0.0009,-0.5543,0
18784550,1.0000,0.0009,-0.0000,0.0000,-0.0139,-0.0134,-0.5563,0
18784717,1.0000,0.0009,-0.0000,0.0000,-0.0097,-0.0012,-0.5726,0
18784883,1.0000,0.0009,-0.0000,0.0000,-0.0230,0.0006,-0.5663,0
18785050,1.0000,0.0009,-0.0000,0.0000,0.0086,0.0024,-0.5466,0
18785217,1.0000,0.0009,-0.0000,0.0000,0.0221,0.0160,-0.5267,0
18785384,1.0000,0.0009,-0.0000,0.0000,0.0078,0.0047,-0.5130,0
18785550,1.0000,0.0009,-0.0000,0.0000,-0.0012,0.0102,-0.5220,0
18785717,1.0000,0.0009,-0.0000,0.0000,-0.0023,-0.0002,-0.5255,0
18785884,1.0000,0.0009,-0.0000,0.0000,-0.0006,0.0062,-0.5358,0
18786050,1.0000,0.0009,-0.0000,0.0000,-0.0186,-0.0055,-0.5500,0
18786217,1.0000,0.0009,-0.0000,0.0000,0.0015,0.0075,-0.5472,0
18786384,1.0000,0.0009,-0.0000,0.0000,0.0145,0.0005,-0.5615,0
18786550,1.0000,0.0009,-0.0000,0.0000,0.0081,-0.0010,-0.5240,0
18786717,1.0000,0.0009,-0.0001,0.0000,-0.0092,0.0044,-0.5450,0
18786884,1.0000,0.0009,-0.0001,0.0000,-0.0090,-0.0031,-0.5533,0
18787050,1.0000,0.0009,-0.0001,0.0000,-0.0155,-0.0106,-0.5420,0
18787217,1.0000,0.0009,-0.0001,0.0000,-0.0025,-0.0011,-0.5704,0
18787384,1.0000,0.0009,-0.0001,0.0000,0.0042,-0.0115,-0.5367,0
18787550,1.0000,0.0009,-0.0001,0.0000,0.0090,0.0043,-0.5471,0
18787717,1.0000,0.0009,-0.0001,0.0000,0.0086,0.0092,-0.5213,0
18787884,1.0000,0.0009,-0.0001,0.0000,0.0001,0.0160,-0.5342,0
18788050,1.0000,0.0009,-0.0001,0.0000,-0.0068,0.0019,-0.5426,0
18788217,1.0000,0.0009,-0.0001,0.0000,-0.0187,-0.0191,-0.5506,0
18788384,1.0000,0.0009,-0.0001,0.0000,-0.0183,-0.0072,-0.5518,0
18788550,1.0000,0.0009,-0.0001,0.0000,-0.0037,-0.0019,-0.5340,0
18788717,1.0000,0.0009,-0.0001,0.0000,0.0144,-0.0108,-0.5360,0
18788884,1.0000,0.0009,-0.0001,0.0000,0.0078,0.0041,-0.5351,0
18789050,1.0000,0.0009,-0.0001,0.0000,-0.0021,0.0007,-0.5331,0
18789217,1.0000,0.0009,-0.0001,0.0000,-0.0128,0.0028,-0.5398,0
18789384,1.0000,0.0009,-0.0001,0.0000,-0.0163,-0.0154,-0.5638,0
18789550,1.0000,0.0009,-0.0000,0.0000,-0.0155,-0.0088,-0.5359,0
18789717,1.0000,0.0009,-0.0001,0.0000,-0.0071,-0.0074,-0.5324,0
18789884,1.0000,0.0009,-0.0001,0.0000,0.0102,0.0070,-0.5426,0
18790050,1.0000,0.0009,-0.0001,0.0000,0.0077,0.0049,-0.5204,0
18790217,1.0000,0.0009,-0.0000,0.0000,0.0051,-0.0072,-0.5266,0
18790384,1.0000,0.0009,-0.0000,0.0000,-0.0071,-0.0037,-0.5532,0
18790550,1.0000,0.0009,-0.0000,0.0000,-0.0155,0.0087,-0.5600,0
18790717,1.0000,0.0009,-0.0000,0.0000,0.0061,0.0027,-0.5708,0
18790884,1.0000,0.0009,-0.0000,0.0000,0.0025,0.0009,-0.5376,0
18791050,1.0000,0.0009,-0.0000,0.0000,0.0041,0.0006,-0.5453,0
18791217,1.0000,0.0009,-0.0000,0.0000,-0.0071,0.0063,-0.5276,0
18791384,1.0000,0.0009,-0.0000,0.0000,0.0033,0.0015,-0.5306,0
18791550,1.0000,0.0009,-0.0000,0.0000,-0.0036,-0.0032,-0.5472,0
18791717,1.0000,0.0009,-0.0000,0.0000,-0.0122,-0.0090,-0.5500,0
18791884,1.0000,0.0009,-0.0000,0.0000,0.0024,-0.0044,-0.5387,0
18792050,1.0000,0.0009,-0.0000,0.0000,-0.0056,-0.0080,-0.5457,0
18792217,1.0000,0.0009,-0.0000,0.0000,0.0195,-0.0073,-0.5585,0
18792384,1.0000,0.0009,-0.0000,0.0000,0.0041,0.0070,-0.5429,0
18792550,1.0000,0.0009,-0.0001,0.0000,0.0023,0.0010,-0.5635,0
18792717,1.0000,0.0009,-0.0001,0.0000,-0.0126,-0.0077,-0.5449,0
18792884,1.0000,0.0009,-0.0001,0.0000,-0.0091,-0.0067,-0.5745,0
18793050,1.0000,0.0009,-0.0001,0.0000,-0.0051,0.0037,-0.5300,0
18793217,1.0000,0.0009,-0.0001,0.0000,0.0016,0.0002,-0.5386,0
18793384,1.0000,0.0009,-0.0001,0.0000,0.0135,0.0101,-0.5447,0
18793550,1.0000,0.0009,-0.0001,0.0000,0.0191,0.0083,-0.5065,0
18793717,1.0000,0.0009,-0.0001,0.0000,0.0018,0.0007,-0.4997,0
18793884,1.0000,0.0009,-0.0001,-0.0000,-0.0087,-0.0010,-0.5948,0
18794050,1.0000,0.0009,-0.0001,-0.0000,-0.0168,-0.0064,-0.5433,0
18794217,1.0000,0.0009,-0.0001,0.0000,-0.0223,-0.0042,-0.5614,0
18794384,1.0000,0.0009,-0.0001,0.0000,-0.0055,0.0042,-0.5654,0
18794550,1.0000,0.0009,-0.0001,-0.0000,0.0168,0.0095,-0.5112,0
18794717,1.0000,0.0009,-0.0001,-0.0000,0.0050,0.0014,-0.5012,0
18794884,1.0000,0.0008,-0.0001,-0.0000,0.0179,-0.0116,-0.5414,0
18795050,1.0000,0.0008,-0.0001,-0.0000,0.0049,-0.0059,-0.5567,0
18795217,1.0000,0.0008,-0.0001,-0.0000,-0.0182,0.0129,-0.5491,0
18795384,1.0000,0.0009,-0.0001,-0.0000,-0.0274,0.0142,-0.5420,0
18795550,1.0000,0.0008,-0.0001,-0.0000,0.0072,0.0297,-0.5526,0
18795717,1.0000,0.0008,-0.0001,-0.0000,0.0216,0.0258,-0.5064,0
18795884,1.0000,0.0008,-0.0000,-0.0000,0.0187,0.0062,-0.5376,0
18796050,1.0000,0.0008,-0.0000,-0.0000,0.0033,-0.0311,-0.5459,0
18796217,1.0000,0.0008,0.0000,-0.0000,-0.0065,-0.0207,-0.5023,0
18796384,1.0000,0.0008,0.0000,-0.0000,0.0001,0.0102,-0.5687,0
18796550,1.0000,0.0008,0.0000,-0.0000,-0.0156,0.0106,-0.5793,0
18796717,1.0000,0.0008,0.0000,-0.0000,0.0055,-0.0123,-0.5332,0
18796884,1.0000,0.0008,0.0001,-0.0000,0.0150,-0.0071,-0.5721,0
18797050,1.0000,0.0008,0.0001,-0.0000,-0.0084,0.0042,-0.5258,0
18797217,1.0000,0.0008,0.0001,-0.0000,-0.0224,-0.0027,-0.5673,0
18797384,1.0000,0.0008,0.0001,-0.0000,-0.0176,-0.0147,-0.6024,0
18797550,1.0000,0.0008,0.0001,-0.0000,-0.0113,0.0159,-0.5006,0
18797717,1.0000,0.0008,0.0001,-0.0000,-0.0077,0.0059,-0.5556,0
18797884,1.0000,0.0008,0.0001,-0.0000,0.0117,-0.0112,-0.5450,0
18798050,1.0000,0.0008,0.0001,-0.0000,0.0074,-0.0004,-0.5272,0
18798217,1.0000,0.0008,0.0001,-0.0000,-0.0122,0.0092,-0.5983,0
18798384,1.0000,0.0008,0.0001,-0.0000,-0.0112,0.0087,-0.5397,0
18798550,1.0000,0.0008,0.0001,0.0000,-0.0012,0.0024,-0.5698,0
18798717,1.0000,0.0008,0.0001,-0.0000,0.0037,-0.0065,-0.5524,0
18798884,1.0000,0.0008,0.0001,-0.0000,0.0031,-0.0165,-0.5125,0
18799050,1.0000,0.0008,0.0001,-0.0000,-0.0025,0.0045,-0.5108,0
18799217,1.0000,0.0008,0.0001,-0.0000,0.0140,-0.0014,-0.5163,0
18799384,1.0000,0.0008,0.0001,0.0000,-0.0039,-0.0014,-0.5361,0
18799550,1.0000,0.0008,0.0001,0.0000,-0.0005,-0.0009,-0.5553,0
18799717,1.0000,0.0008,0.0001,-0.0000,-0.0079,0.0059,-0.5303,0
18799884,1.0000,0.0008,0.0001,-0.0000,-0.0142,-0.0068,-0.5306,0
18800050,1.0000,0.0008,0.0001,-0.0000,0.0001,-0.0140,-0.5561,0
18800217,1.0000,0.0008,0.0001,-0.0000,0.0164,-0.0014,-0.5227,0
18800384,1.0000,0.0008,0.0001,-0.0000,0.0033,0.0133,-0.5453,0
18800550,1.0000,0.0008,0.0001,-0.0000,0.0120,0.0049,-0.5645,0
18800717,1.0000,0.0008,0.0001,-0.0000,-0.0073,-0.0068,-0.5601,0
18800884,1.0000,0.0008,0.0001,-0.0000,-0.0069,-0.0039,-0.5451,0
18801050,1.0000,0.0008,0.0001,-0.0000,0.0006,-0.0141,-0.5433,0
18801217,1.0000,0.0008,0.0001,-0.0000,-0.0091,-0.0059,-0.5291,0
18801384,1.0000,0.0008,0.0001,-0.0000,0.0014,-0.0034,-0.5267,0
18801550,1.0000,0.0008,0.0001,-0.0000,0.0018,0.0109,-0.5442,0
18801717,1.0000,0.0008,0.0001,-0.0000,-0.0042,0.0039,-0.5467,0
18801884,1.0000,0.0008,0.0001,-0.0000,0.0001,0.0000,-0.5461,0
18802051,1.0000,0.0008,0.0001,-0.0000,0.0046,0.0010,-0.5402,0
18802217,1.0000,0.0008,0.0001,-0.0000,0.0063,-0.0212,-0.5287,0
18802384,1.0000,0.0008,0.0001,-0.0000,0.0087,0.0016,-0.5297,0
18802551,1.0000,0.0008,0.0001,-0.0000,0.0024,0.0163,-0.5416,0
18802717,1.0000,0.0008,0.0001,-0.0000,0.0007,0.0146,-0.5475,0
18802884,1.0000,0.0008,0.0001,-0.0000,-0.0123,-0.0070,-0.5373,0
18803051,1.0000,0.0008,0.0001,-0.0000,-0.0155,-0.0152,-0.5355,0
18803217,1.0000,0.0008,0.0001,0.0000,-0.0136,-0.0078,-0.5335,0
18803384,1.0000,0.0008,0.0001,0.0000,0.0144,-0.0034,-0.5325,0
18803551,1.0000,0.0008,0.0001,0.0000,-0.0157,0.0040,-0.5352,0
18803717,1.0000,0.0008,0.0001,0.0000,0.0046,0.0062,-0.5191,0
18803884,1.0000,0.0008,0.0001,0.0000,0.0083,0.0129,-0.5431,0
18804051,1.0000,0.0008,0.0001,0.0000,-0.0073,-0.0052,-0.5353,0
18804217,1.0000,0.0008,0.0001,0.0000,0.0105,-0.0086,-0.5473,0
18804384,1.0000,0.0008,0.0001,0.0000,0.0084,-0.0203,-0.5421,0
18804551,1.0000,0.0008,0.0001,0.0000,0.0048,0.0089,-0.5356,0
18804717,1.0000,0.0008,0.0001,0.0000,0.0068,0.0236,-0.5606,0
18804884,1.0000,0.0008,0.0001,0.0000,0.0029,0.0159,-0.5341,0
18805051,1.0000,0.0008,0.0001,0.0000,0.0037,0.0029,-0.5446,0
18805217,1.0000,0.0008,0.0001,0.0000,-0.0028,0.0085,-0.5286,0
18805384,1.0000,0.0008,0.0001,0.0000,-0.0042,0.0122,-0.5484,0
18805551,1.0000,0.0008,0.0001,0.0000,-0.0143,0.0072,-0.5427,0
18805717,1.0000,0.0008,0.0001,0.0000,-0.0030,0.0034,-0.5328,0
18805884,1.0000,0.0008,0.0001,0.0000,-0.0074,0.0191,-0.5345,0
18806051,1.0000,0.0008,0.0001,0.0000,0.0022,-0.0023,-0.5523,0
18806217,1.0000,0.0008,0.0001,0.0000,0.0013,-0.0122,-0.5540,0
18806384,1.0000,0.0008,0.0001,0.0000,-0.0044,0.0023,-0.5404,0
18806551,1.0000,0.0008,0.0001,0.0000,-0.0095,-0.0087,-0.5241,0
18806717,1.0000,0.0008,0.0001,0.0000,-0.0003,-0.0133,-0.5429,0
18806884,1.0000,0.0008,0.0001,-0.0000,-0.0011,0.0120,-0.5241,0
18807051,1.0000,0.0008,0.0001,-0.0000,0.0055,0.0182,-0.5420,0
18807217,1.0000,0.0008,0.0001,0.0000,-0.0028,-0.0028,-0.5369,0
18807384,1.0000,0.0008,0.0001,0.0000,0.0075,0.0038,-0.5324,0
18807551,1.0000,0.0008,0.0001,-0.0000,-0.0181,-0.0015,-0.5267,0
18807717,1.0000,0.0008,0.0001,0.0000,-0.0126,-0.0057,-0.5430,0
18807884,1.0000,0.0008,0.0001,0.0000,0.0014,-0.0018,-0.5563,0
18808051,1.0000,0.0008,0.0001,0.0000,-0.0058,0.0032,-0.5365,0
18808217,1.0000,0.0008,0.0001,0.0000,0.0079,0.0080,-0.5362,0
18808384,1.0000,0.0008,0.0001,0.0000,0.0063,-0.0128,-0.5550,0
18808551,1.0000,0.0008,0.0001,0.0000,-0.0098,-0.0032,-0.5373,0
18808717,1.0000,0.0008,0.0001,0.0000,-0.0113,0.0019,-0.5376,0
18808884,1.0000,0.0008,0.0001,0.0000,-0.0065,0.0120,-0.5726,0
18809051,1.0000,0.0008,0.0001,0.0000,-0.0033,-0.0075,-0.5454,0
18809217,1.0000,0.0008,0.0001,0.0000,-0.0054,0.0117,-0.5495,0
18809384,1.0000,0.0008,0.0001,0.0000,0.0021,0.0040,-0.5263,0
18809551,1.0000,0.0008,0.0001,0.0000,0.0116,-0.0082,-0.5321,0
18809717,1.0000,0.0008,0.0001,0.0000,0.0079,-0.0066,-0.5353,0
18809884,1.0000,0.0008,0.0001,0.0000,0.0071,0.0110,-0.5564,0
18810051,1.0000,0.0008,0.0001,0.0000,-0.0015,0.0034,-0.5392,0
18810217,1.0000,0.0008,0.0001,0.0000,-0.0117,-0.0012,-0.5530,0
18810384,1.0000,0.0008,0.0001,0.0000,0.0101,-0.0101,-0.5356,0
18810551,1.0000,0.0009,0.0001,0.0001,-0.0008,0.0008,-0.5523,0
18810717,1.0000,0.0009,0.0001,0.0000,0.0041,0.0009,-0.5216,0
18810884,1.0000,0.0009,0.0001,0.0001,0.0002,-0.0108,-0.5354,0
18811051,1.0000,0.0009,0.0001,0.0001,0.0059,-0.0069,-0.5431,0
18811217,1.0000,0.0009,0.0001,0.0001,-0.0052,-0.0046,-0.5480,0
18811384,1.0000,0.0009,0.0001,0.0000,-0.0160,0.0003,-0.5374,0
18811551,1.0000,0.0009,0.0001,0.0001,-0.0118,-0.0081,-0.5452,0
18811717,1.0000,0.0009,0.0001,0.0001,0.0000,-0.0069,-0.5561,0
18811884,1.0000,0.0009,0.0001,0.0001,0.0009,-0.0087,-0.5377,0
18812051,1.0000,0.0009,0.0001,0.0001,0.0067,-0.0021,-0.5429,0
18812217,1.0000,0.0009,0.0001,0.0001,0.0022,-0.0038,-0.5354,0
18812384,1.0000,0.0009,0.0001,0.0001,0.0010,0.0056,-0.5482,0
18812551,1.0000,0.0009,0.0001,0.0001,-0.0053,0.0136,-0.5472,0
18812717,1.0000,0.0009,0.0001,0.0001,-0.0018,-0.0112,-0.5357,0
18812884,1.0000,0.0009,0.0001,0.0001,0.0083,-0.0057,-0.5281,0
18813051,1.0000,0.0009,0.0001,0.0001,0.0116,0.0058,-0.5556,0
18813217,1.0000,0.0009,0.0001,0.0001,0.0028,-0.0019,-0.5401,0
18813384,1.0000,0.0009,0.0001,0.0001,0.0071,0.0060,-0.5356,0
18813551,1.0000,0.0009,0.0001,0.0001,-0.0060,-0.0069,-0.5371,0
18813717,1.0000,0.0009,0.0001,0.0001,-0.0043,-0.0043,-0.5472,0
18813884,1.0000,0.0009,0.0001,0.0001,-0.0066,-0.0011,-0.5264,0
18814051,1.0000,0.0009,0.0001,0.0001,0.0033,-0.0087,-0.5425,0
18814217,1.0000,0.0009,0.0001,0.0001,0.0138,-0.0047,-0.5675,0
18814384,1.0000,0.0009,0.0001,0.0001,-0.0070,0.0109,-0.5465,0
18814551,1.0000,0.0009,0.0001,0.0001,-0.0186,-0.0093,-0.5544,0
18814717,1.0000,0.0009,0.0001,0.0001,-0.0082,-0.0191,-0.5393,0
18814884,1.0000,0.0009,0.0001,0.0001,0.0015,-0.0139,-0.5512,0
18815051,1.0000,0.0009,0.0001,0.0001,-0.0034,-0.0006,-0.5414,0
18815217,1.0000,0.0009,0.0001,0.0001,0.0001,0.0102,-0.5474,0
18815384,1.0000,0.0009,0.0001,0.0001,-0.0024,-0.0111,-0.5277,0
18815551,1.0000,0.0008,0.0001,0.0001,-0.0073,0.0115,-0.5462,0
18815717,1.0000,0.0008,0.0001,0.0001,0.0064,0.0126,-0.5222,0
18815884,1.0000,0.0008,0.0001,0.0001,0.0040,0.0068,-0.5549,0
18816051,1.0000,0.0008,0.0001,0.0001,0.0030,-0.0052,-0.5297,0
18816217,1.0000,0.0008,0.0001,0.0001,0.0018,-0.0065,-0.5253,0
18816384,1.0000,0.0008,0.0001,0.0001,-0.0029,0.0037,-0.5457,0
18816551,1.0000,0.0008,0.0001,0.0001,-0.0011,0.0202,-0.5469,0
18816717,1.0000,0.0008,0.0001,0.0001,-0.0027,0.0015,-0.5331,0
18816884,1.0000,0.0008,0.0001,0.0001,-0.0042,0.0057,-0.5671,0
18817051,1.0000,0.0008,0.0001,0.0001,0.0014,-0.0006,-0.5439,0
18817217,1.0000,0.0009,0.0001,0.0001,0.0124,-0.0050,-0.5331,0
18817384,1.0000,0.0009,0.0001,0.0001,0.0030,0.0018,-0.5427,0
18817551,1.0000,0.0009,0.0001,0.0001,0.0011,0.0152,-0.5182,0
18817717,1.0000,0.0009,0.0001,0.0001,-0.0044,0.0089,-0.5438,0
18817884,1.0000,0.0009,0.0001,0.0001,-0.0019,-0.0054,-0.5315,0
18818051,1.0000,0.0009,0.0001,0.0001,0.0070,0.0001,-0.5288,0
18818217,1.0000,0.0009,0.0001,0.0001,0.0104,-0.0035,-0.5352,0
18818384,1.0000,0.0009,0.0001,0.0001,0.0048,0.0097,-0.5426,0
18818551,1.0000,0.0009,0.0001,0.0001,0.0092,0.0057,-0.5370,0
18818718,1.0000,0.0009,0.0001,0.0001,0.0058,-0.0003,-0.5486,0
18818884,1.0000,0.0009,0.0001,0.0001,0.0067,0.0058,-0.5516,0
18819051,1.0000,0.0009,0.0001,0.0001,-0.0094,0.0119,-0.5508,0
18819218,1.0000,0.0009,0.0001,0.0001,-0.0160,-0.0038,-0.5486,0
18819384,1.0000,0.0009,0.0001,0.0001,-0.0087,0.0098,-0.5386,0
18819551,1.0000,0.0009,0.0001,0.0001,-0.0027,0.0103,-0.5508,0
18819718,1.0000,0.0009,0.0001,0.0001,0.0055,-0.0074,-0.5260,0
18819884,1.0000,0.0009,0.0001,0.0001,-0.0047,-0.0031,-0.5423,0
18820051,1.0000,0.0009,0.0001,0.0001,-0.0014,0.0032,-0.5469,0
18820218,1.0000,0.0009,0.0001,0.0001,-0.0077,0.0046,-0.5517,0
18820384,1.0000,0.0009,0.0001,0.0001,0.0004,0.0024,-0.5316,0
18820551,1.0000,0.0009,0.0001,0.0001,0.0204,0.0003,-0.5360,0
18820718,1.0000,0.0009,0.0001,0.0001,-0.0137,0.0048,-0.5510,0
18820884,1.0000,0.0009,0.0001,0.0001,0.0014,0.0015,-0.5262,0
18821051,1.0000,0.0009,0.0001,0.0001,-0.0000,0.0081,-0.5549,0
18821218,1.0000,0.0009,0.0001,0.0001,0.0063,-0.0118,-0.5522,0
18821384,1.0000,0.0009,0.0001,0.0001,0.0013,0.0001,-0.5537,0
18821551,1.0000,0.0009,0.0001,0.0001,-0.0085,0.0011,-0.5460,0
18821718,1.0000,0.0009,0.0001,0.0001,-0.0091,-0.0060,-0.5452,0
18821884,1.0000,0.0009,0.0001,0.0001,0.0058,-0.0064,-0.5703,0
18822051,1.0000,0.0009,0.0001,0.0001,0.0015,-0.0038,-0.5445,0
18822218,1.0000,0.0009,0.0001,0.0001,0.0125,0.0008,-0.5362,0
18822384,1.0000,0.0009,0.0001,0.0001,0.0021,-0.0107,-0.5599,0
18822551,1.0000,0.0009,0.0001,0.0002,-0.0159,-0.0074,-0.5537,0
18822718,1.0000,0.0009,0.0001,0.0002,0.0098,0.0019,-0.5256,0
18822884,1.0000,0.0009,0.0001,0.0002,-0.0023,-0.0046,-0.5386,0
18823051,1.0000,0.0009,0.0001,0.0002,-0.0040,-0.0094,-0.5569,0
18823218,1.0000,0.0009,0.0001,0.0001,0.0038,-0.0053,-0.5263,0
18823384,1.0000,0.0009,0.0001,0.0002,-0.0110,-0.0047,-0.5277,0
18823551,1.0000,0.0009,0.0001,0.0001,-0.0080,0.0034,-0.5504,0
18823718,1.0000,0.0009,0.0001,0.0002,-0.0022,-0.0039,-0.5359,0
18823884,1.0000,0.0009,0.0001,0.0002,-0.0028,0.0030,-0.5436,0
18824051,1.0000,0.0009,0.0001,0.0002,0.0028,0.0073,-0.5489,0
18824218,1.0000,0.0009,0.0001,0.0002,-0.0133,-0.0029,-0.5729,0
18824384,1.0000,0.0009,0.0001,0.0002,0.0069,-0.0036,-0.5343,0
18824551,1.0000,0.0009,0.0001,0.0002,-0.0059,-0.0088,-0.5415,0
18824718,1.0000,0.0009,0.0001,0.0002,0.0031,-0.0077,-0.5306,0
18824884,1.0000,0.0009,0.0001,0.0002,0.0006,-0.0010,-0.5657,0
18825051,1.0000,0.0009,0.0001,0.0002,0.0007,0.0058,-0.5312,0
18825218,1.0000,0.0009,0.0001,0.0002,-0.0006,-0.0085,-0.5436,0
18825384,1.0000,0.0009,0.0001,0.0002,-0.0008,0.0001,-0.5321,0
18825551,1.0000,0.0009,0.0001,0.0002,-0.0015,-0.0009,-0.5337,0
18825718,1.0000,0.0009,0.0001,0.0001,0.0049,0.0034,-0.5308,0
18825884,1.0000,0.0009,0.0001,0.0002,-0.0134,0.0007,-0.5435,0
18826051,1.0000,0.0009,0.0001,0.0002,0.0030,0.0043,-0.5343,0
18826218,1.0000,0.0009,0.0001,0.0002,-0.0028,0.0043,-0.5342,0
18826384,1.0000,0.0009,0.0001,0.0002,0.0032,0.0064,-0.5480,0
18826551,1.0000,0.0009,0.0001,0.0002,0.0114,-0.0011,-0.5346,0
18826718,1.0000,0.0009,0.0001,0.0002,0.0102,-0.0034,-0.5391,0
18826884,1.0000,0.0010,0.0001,0.0002,-0.0014,-0.0079,-0.5352,0
18827051,1.0000,0.0010,0.0001,0.0002,0.0000,-0.0075,-0.5514,0
18827218,1.0000,0.0010,0.0001,0.0002,-0.0131,-0.0081,-0.5562,0
18827384,1.0000,0.0010,0.0001,0.0002,0.0006,-0.0124,-0.5439,0
18827551,1.0000,0.0010,0.0001,0.0002,-0.0069,-0.0049,-0.5490,0
18827718,1.0000,0.0010,0.0001,0.0002,-0.0035,-0.0042,-0.5508,0
18827884,1.0000,0.0010,0.0001,0.0002,-0.0049,-0.0071,-0.5438,0
18828051,1.0000,0.0010,0.0001,0.0002,0.0167,-0.0072,-0.5407,0
18828218,1.0000,0.0010,0.0001,0.0002,0.0008,-0.0150,-0.5322,0
18828384,1.0000,0.0010,0.0001,0.0002,-0.0033,0.0062,-0.5225,0
18828551,1.0000,0.0010,0.0001,0.0002,-0.0025,-0.0038,-0.5403,0
18828718,1.0000,0.0009,0.0001,0.0002,-0.0044,-0.0102,-0.5416,0
18828884,1.0000,0.0009,0.0001,0.0002,-0.0106,-0.0081,-0.5433,0
18829051,1.0000,0.0009,0.0001,0.0002,0.0122,0.0010,-0.5442,0
18829218,1.0000,0.0009,0.0001,0.0002,0.0014,-0.0041,-0.5326,0
18829384,1.0000,0.0009,0.0001,0.0002,0.0062,0.0030,-0.5333,0
18829551,1.0000,0.0009,0.0001,0.0002,-0.0009,-0.0020,-0.5431,0
18829718,1.0000,0.0009,0.0001,0.0002,-0.0031,-0.0025,-0.5462,0
18829884,1.0000,0.0009,0.0001,0.0002,-0.0038,0.0072,-0.5424,0
18830051,1.0000,0.0009,0.0002,0.0002,0.0017,0.0011,-0.5370,0
18830218,1.0000,0.0009,0.0002,0.0002,0.0064,-0.0112,-0.5412,0
18830384,1.0000,0.0009,0.0002,0.0002,0.0024,0.0056,-0.5491,0
18830551,1.0000,0.0009,0.0002,0.0002,-0.0008,-0.0175,-0.5582,0
18830718,1.0000,0.0009,0.0002,0.0002,0.0040,-0.0034,-0.5388,0
18830884,1.0000,0.0009,0.0002,0.0002,0.0197,0.0063,-0.5421,0
18831051,1.0000,0.0009,0.0002,0.0002,0.0045,-0.0097,-0.5281,0
18831218,1.0000,0.0009,0.0002,0.0002,0.0035,0.0006,-0.5363,0
18831384,1.0000,0.0009,0.0002,0.0002,-0.0052,-0.0055,-0.5449,0
18831551,1.0000,0.0009,0.0002,0.0002,0.0082,0.0112,-0.5373,0
18831718,1.0000,0.0009,0.0002,0.0002,0.0001,-0.0075,-0.5391,0
18831884,1.0000,0.0009,0.0002,0.0002,-0.0011,0.0024,-0.5330,0
18832051,1.0000,0.0009,0.0002,0.0002,0.0048,-0.0002,-0.5337,0
18832218,1.0000,0.0009,0.0002,0.0002,-0.0003,-0.0025,-0.5412,0
18832384,1.0000,0.0009,0.0002,0.0002,-0.0038,-0.0134,-0.5561,0
18832551,1.0000,0.0009,0.0002,0.0002,0.0042,-0.0010,-0.5209,0
18832718,1.0000,0.0009,0.0002,0.0003,-0.0099,-0.0025,-0.5325,0
18832884,1.0000,0.0009,0.0002,0.0003,-0.0022,-0.0018,-0.5724,0
18833051,1.0000,0.0009,0.0002,0.0003,-0.0192,-0.0131,-0.5432,0
18833218,1.0000,0.0009,0.0002,0.0003,-0.0038,0.0006,-0.5390,0
18833384,1.0000,0.0009,0.0002,0.0003,-0.0013,0.0057,-0.5497,0
18833551,1.0000,0.0009,0.0001,0.0003,0.0055,0.0095,-0.5475,0
18833718,1.0000,0.0009,0.0001,0.0003,0.0079,0.0039,-0.5369,0
18833884,1.0000,0.0009,0.0001,0.0003,0.0068,-0.0096,-0.5392,0
18834051,1.0000,0.0009,0.0001,0.0003,-0.0048,-0.0003,-0.5393,0
18834218,1.0000,0.0009,0.0001,0.0003,0.0045,-0.0024,-0.5177,0
18834384,1.0000,0.0009,0.0001,0.0003,0.0053,-0.0035,-0.5469,0
18834551,1.0000,0.0009,0.0001,0.0003,0.0120,0.0041,-0.5171,0
18834718,1.0000,0.0009,0.0001,0.0003,0.0073,0.0093,-0.5568,0
18834884,1.0000,0.0009,0.0001,0.0003,0.0120,-0.0028,-0.5175,0
18835051,1.0000,0.0009,0.0001,0.0003,0.0023,-0.0027,-0.5549,0
18835218,1.0000,0.0009,0.0001,0.0003,0.0122,0.0012,-0.5464,0
18835385,1.0000,0.0009,0.0001,0.0003,-0.0045,0.0064,-0.5653,0
18835551,1.0000,0.0009,0.0001,0.0003,0.0054,0.0035,-0.5402,0
18835718,1.0000,0.0009,0.0001,0.0003,-0.0095,-0.0082,-0.5226,0
18835885,1.0000,0.0009,0.0001,0.0003,-0.0101,-0.0033,-0.5499,0
18836051,1.0000,0.0009,0.0001,0.0003,-0.0063,0.0044,-0.5114,0
18836218,1.0000,0.0009,0.0001,0.0003,0.0007,0.0039,-0.5333,0
18836385,1.0000,0.0009,0.0001,0.0003,0.0082,0.0028,-0.5613,0
18836551,1.0000,0.0009,0.0001,0.0003,-0.0076,-0.0055,-0.5503,0
18836718,1.0000,0.0009,0.0001,0.0003,0.0029,0.0019,-0.5556,0
18836885,1.0000,0.0009,0.0001,0.0003,0.0031,0.0047,-0.5286,0
18837051,1.0000,0.0009,0.0001,0.0003,-0.0089,0.0060,-0.5496,0
18837218,1.0000,0.0009,0.0001,0.0003,-0.0064,-0.0045,-0.5424,0
18837385,1.0000,0.0009,0.0001,0.0003,0.0074,-0.0048,-0.5437,0
18837551,1.0000,0.0009,0.0001,0.0003,0.0047,0.0046,-0.5376,0
18837718,1.0000,0.0009,0.0001,0.0003,-0.0179,-0.0120,-0.5460,0
18837885,1.0000,0.0009,0.0001,0.0003,0.0103,0.0063,-0.5405,0
18838051,1.0000,0.0009,0.0001,0.0003,0.0120,-0.0002,-0.5575,0
18838218,1.0000,0.0009,0.0001,0.0003,-0.0050,0.0087,-0.5553,0
18838385,1.0000,0.0009,0.0001,0.0003,-0.0127,0.0076,-0.5386,0
18838551,1.0000,0.0009,0.0001,0.0003,-0.0069,-0.0019,-0.5527,0
18838718,1.0000,0.0009,0.0001,0.0003,0.0114,-0.0083,-0.5396,0
18838885,1.0000,0.0009,0.0001,0.0003,0.0026,0.0082,-0.5335,0
18839051,1.0000,0.0009,0.0001,0.0003,0.0034,-0.0033,-0.5209,0
18839218,1.0000,0.0009,0.0001,0.0003,0.0013,-0.0039,-0.5318,0
18839385,1.0000,0.0009,0.0001,0.0003,0.0046,-0.0068,-0.5459,0
18839551,1.0000,0.0009,0.0001,0.0003,-0.0002,-0.0018,-0.5476,0
18839718,1.0000,0.0009,0.0001,0.0003,-0.0053,-0.0016,-0.5348,0
18839885,1.0000,0.0009,0.0001,0.0003,-0.0156,0.0034,-0.5596,0
18840051,1.0000,0.0009,0.0001,0.0003,0.0125,-0.0024,-0.5474,0
18840218,1.0000,0.0009,0.0001,0.0003,0.0094,-0.0138,-0.5463,0
18840385,1.0000,0.0009,0.0001,0.0003,0.0093,0.0077,-0.5407,0
18840551,1.0000,0.0009,0.0001,0.0003,0.0044,0.0031,-0.5604,0
18840718,1.0000,0.0009,0.0001,0.0003,-0.0118,0.0104,-0.5498,0
18840885,1.0000,0.0009,0.0001,0.0003,0.0133,-0.0094,-0.5504,0
18841051,1.0000,0.0009,0.0001,0.0003,-0.0073,-0.0029,-0.5369,0
18841218,1.0000,0.0009,0.0001,0.0003,-0.0048,0.0092,-0.5391,0
18841385,1.0000,0.0009,0.0001,0.0003,-0.0013,0.0033,-0.5509,0
18841551,1.0000,0.0009,0.0001,0.0003,0.0035,0.0071,-0.5384,0
18841718,1.0000,0.0009,0.0001,0.0003,-0.0003,-0.0011,-0.5253,0
18841885,1.0000,0.0009,0.0001,0.0003,-0.0008,0.0053,-0.5454,0
18842051,1.0000,0.0009,0.0001,0.0003,-0.0056,-0.0065,-0.5170,0
18842218,1.0000,0.0009,0.0001,0.0003,-0.0033,-0.0132,-0.5543,0
18842385,1.0000,0.0009,0.0001,0.0003,0.0023,0.0029,-0.5399,0
18842551,1.0000,0.0009,0.0001,0.0003,-0.0092,0.0196,-0.5271,0
18842718,1.0000,0.0009,0.0001,0.0003,-0.0015,0.0023,-0.5434,0
18842885,1.0000,0.0009,0.0001,0.0003,-0.0046,0.0013,-0.5566,0
18843051,1.0000,0.0009,0.0001,0.0003,-0.0097,0.0063,-0.5421,0
18843218,1.0000,0.0009,0.0001,0.0003,-0.0117,0.0056,-0.5413,0
18843385,1.0000,0.0009,0.0001,0.0003,-0.0008,-0.0073,-0.5395,0
18843551,1.0000,0.0009,0.0001,0.0003,0.0061,0.0034,-0.5494,0
18843718,1.0000,0.0009,0.0001,0.0003,0.0028,-0.0002,-0.5426,0
18843885,1.0000,0.0009,0.0001,0.0003,-0.0067,0.0041,-0.5477,0
18844051,1.0000,0.0009,0.0001,0.0003,-0.0081,-0.0069,-0.5406,0
18844218,1.0000,0.0009,0.0001,0.0003,-0.0020,-0.0065,-0.5382,0
18844385,1.0000,0.0009,0.0001,0.0003,-0.0051,-0.0028,-0.5336,0
18844551,1.0000,0.0009,0.0001,0.0003,0.0150,-0.0029,-0.5459,0
18844718,1.0000,0.0009,0.0001,0.0003,-0.0019,0.0028,-0.5354,0
18844885,1.0000,0.0009,0.0001,0.0003,0.0008,-0.0027,-0.5215,0
18845051,1.0000,0.0009,0.0001,0.0003,-0.0082,-0.0129,-0.5372,0
18845218,1.0000,0.0009,0.0001,0.0003,0.0014,0.0006,-0.5508,0
18845385,1.0000,0.0009,0.0001,0.0003,0.0043,-0.0052,-0.5370,0
18845551,1.0000,0.0009,0.0001,0.0003,0.0035,-0.0082,-0.5283,0
18845718,1.0000,0.0009,0.0001,0.0003,-0.0030,-0.0072,-0.5145,0
18845885,1.0000,0.0009,0.0001,0.0003,-0.0000,-0.0168,-0.5356,0
18846051,1.0000,0.0009,0.0001,0.0003,-0.0082,0.0026,-0.5433,0
18846218,1.0000,0.0009,0.0001,0.0003,-0.0058,-0.0001,-0.5551,0
18846385,1.0000,0.0009,0.0001,0.0003,-0.0011,-0.0014,-0.5489,0
18846551,1.0000,0.0009,0.0001,0.0003,-0.0056,-0.0127,-0.5335,0
18846718,1.0000,0.0009,0.0001,0.0003,-0.0046,-0.0004,-0.5348,0
18846885,1.0000,0.0009,0.0001,0.0003,0.0005,-0.0127,-0.5385,0
18847051,1.0000,0.0009,0.0001,0.0003,0.0101,-0.0060,-0.5396,0
18847218,1.0000,0.0009,0.0001,0.0003,0.0116,-0.0003,-0.5401,0
18847385,1.0000,0.0009,0.0001,0.0003,0.0136,-0.0058,-0.5401,0
18847551,1.0000,0.0009,0.0001,0.0003,-0.0041,-0.0129,-0.5216,0
18847718,1.0000,0.0009,0.0001,0.0003,0.0055,0.0043,-0.5367,0
18847885,1.0000,0.0009,0.0001,0.0003,0.0123,-0.0005,-0.5487,0
18848051,1.0000,0.0009,0.0001,0.0003,0.0027,0.0039,-0.5315,0
18848218,1.0000,0.0009,0.0001,0.0004,0.0143,0.0005,-0.5253,0
18848385,1.0000,0.0009,0.0001,0.0004,0.0009,0.0029,-0.5345,0
18848551,1.0000,0.0009,0.0001,0.0004,0.0001,-0.0012,-0.5408,0
18848718,1.0000,0.0009,0.0001,0.0004,0.0061,-0.0056,-0.5388,0
18848885,1.0000,0.0009,0.0001,0.0004,0.0105,-0.0102,-0.5352,0
18849051,1.0000,0.0009,0.0001,0.0004,0.0048,0.0017,-0.5554,0
18849218,1.0000,0.0009,0.0001,0.0004,0.0006,-0.0074,-0.5361,0
18849385,1.0000,0.0009,0.0001,0.0004,0.0038,-0.0019,-0.5546,0
18849551,1.0000,0.0009,0.0001,0.0004,0.0031,-0.0058,-0.5168,0
18849718,1.0000,0.0009,0.0001,0.0004,0.0074,-0.0039,-0.5237,0
18849885,1.0000,0.0009,0.0002,0.0004,-0.0130,0.0042,-0.5540,0
18850051,1.0000,0.0009,0.0001,0.0004,0.0116,0.0073,-0.5340,0
18850218,1.0000,0.0009,0.0002,0.0003,-0.0040,0.0050,-0.5536,0
18850385,1.0000,0.0009,0.0002,0.0003,-0.0048,-0.0018,-0.5454,0
18850551,1.0000,0.0009,0.0002,0.0003,0.0083,0.0029,-0.5283,0
18850718,1.0000,0.0009,0.0002,0.0003,0.0131,-0.0071,-0.5812,0
18850885,1.0000,0.0009,0.0001,0.0004,0.0039,0.0031,-0.5436,0
18851051,1.0000,0.0009,0.0001,0.0003,0.0041,-0.0095,-0.5557,0
18851218,1.0000,0.0009,0.0001,0.0003,0.0028,0.0030,-0.5589,0
18851385,1.0000,0.0009,0.0001,0.0004,-0.0039,0.0178,-0.5531,0
18851551,1.0000,0.0009,0.0001,0.0004,-0.0105,0.0051,-0.5540,0
18851718,1.0000,0.0009,0.0001,0.0004,-0.0098,-0.0050,-0.5507,0
18851885,1.0000,0.0009,0.0002,0.0004,-0.0045,-0.0102,-0.5232,0
18852052,1.0000,0.0009,0.0002,0.0004,-0.0087,-0.0014,-0.5405,0
18852218,1.0000,0.0009,0.0002,0.0004,-0.0057,0.0036,-0.5364,0
18852385,1.0000,0.0009,0.0002,0.0004,-0.0019,0.0058,-0.5510,0
18852552,1.0000,0.0009,0.0002,0.0003,0.0046,-0.0012,-0.5493,0
18852718,1.0000,0.0009,0.0002,0.0003,0.0070,-0.0003,-0.5485,0
18852885,1.0000,0.0009,0.0002,0.0003,0.0114,0.0011,-0.5377,0
18853052,1.0000,0.0009,0.0002,0.0003,0.0102,-0.0076,-0.5386,0
18853218,1.0000,0.0009,0.0002,0.0003,0.0034,0.0040,-0.5386,0
18853385,1.0000,0.0009,0.0002,0.0003,0.0047,-0.0047,-0.5489,0
18853552,1.0000,0.0009,0.0002,0.0003,0.0004,-0.0089,-0.5502,0
18853718,1.0000,0.0009,0.0002,0.0003,-0.0086,0.0010,-0.5473,0
18853885,1.0000,0.0009,0.0002,0.0003,0.0123,-0.0105,-0.5483,0
18854052,1.0000,0.0009,0.0002,0.0003,0.0009,-0.0074,-0.5441,0
18854218,1.0000,0.0009,0.0002,0.0003,0.0138,-0.0093,-0.5293,0
18854385,1.0000,0.0009,0.0002,0.0003,0.0089,-0.0070,-0.5400,0
18854552,1.0000,0.0009,0.0002,0.0003,0.0031,-0.0073,-0.5605,0
18854718,1.0000,0.0009,0.0002,0.0003,0.0022,-0.0004,-0.5451,0
18854885,1.0000,0.0009,0.0002,0.0003,0.0049,0.0079,-0.5536,0
18855052,1.0000,0.0009,0.0002,0.0003,0.0099,-0.0059,-0.5396,0
18855218,1.0000,0.0009,0.0002,0.0003,0.0042,0.0023,-0.5437,0
18855385,1.0000,0.0009,0.0002,0.0003,-0.0091,-0.0176,-0.5424,0
18855552,1.0000,0.0009,0.0002,0.0003,-0.0065,-0.0081,-0.5265,0
18855718,1.0000,0.0009,0.0002,0.0003,0.0037,0.0091,-0.5130,0
18855885,1.0000,0.0009,0.0002,0.0003,0.0025,0.0094,-0.5493,0
18856052,1.0000,0.0009,0.0002,0.0003,0.0029,-0.0010,-0.5393,0
18856218,1.0000,0.0009,0.0002,0.0003,0.0064,-0.0010,-0.5458,0
18856385,1.0000,0.0009,0.0002,0.0003,0.0071,0.0046,-0.5424,0
18856552,1.0000,0.0009,0.0002,0.0003,0.0031,-0.0049,-0.5527,0
18856718,1.0000,0.0009,0.0002,0.0004,0.0023,0.0027,-0.5373,0
18856885,1.0000,0.0009,0.0002,0.0004,0.0090,-0.0039,-0.5495,0
18857052,1.0000,0.0009,0.0002,0.0004,0.0022,0.0062,-0.5344,0
18857218,1.0000,0.0009,0.0002,0.0004,0.0110,-0.0036,-0.5547,0
18857385,1.0000,0.0009,0.0002,0.0004,0.0045,-0.0091,-0.5294,0
18857552,1.0000,0.0009,0.0002,0.0004,-0.0016,0.0046,-0.5369,0
18857718,1.0000,0.0009,0.0002,0.0004,0.0104,0.0040,-0.5356,0
18857885,1.0000,0.0009,0.0002,0.0004,0.0052,-0.0012,-0.5148,0
18858052,1.0000,0.0009,0.0002,0.0004,-0.0014,0.0046,-0.5174,0
18858218,1.0000,0.0009,0.0002,0.0004,0.0031,0.0060,-0.5428,0
18858385,1.0000,0.0009,0.0002,0.0004,0.0088,-0.0017,-0.5360,0
18858552,1.0000,0.0009,0.0002,0.0004,0.0133,0.0102,-0.5435,0
18858718,1.0000,0.0009,0.0002,0.0004,-0.0065,0.0005,-0.5438,0
18858885,1.0000,0.0009,0.0001,0.0004,-0.0020,0.0157,-0.5609,0
18859052,1.0000,0.0009,0.0002,0.0004,0.0031,-0.0085,-0.5357,0
18859218,1.0000,0.0009,0.0001,0.0004,-0.0078,-0.0089,-0.5475,0
18859385,1.0000,0.0009,0.0001,0.0004,-0.0055,-0.0141,-0.5335,0
18859552,1.0000,0.0009,0.0002,0.0004,-0.0026,-0.0010,-0.5166,0
18859718,1.0000,0.0009,0.0002,0.0004,-0.0036,-0.0069,-0.5569,0
18859885,1.0000,0.0009,0.0002,0.0004,0.0113,-0.0108,-0.5626,0
18860052,1.0000,0.0009,0.0002,0.0004,0.0072,-0.0016,-0.5414,0
18860218,1.0000,0.0009,0.0002,0.0004,0.0039,-0.0027,-0.5085,0
18860385,1.0000,0.0009,0.0002,0.0004,0.0133,-0.0043,-0.5464,0
18860552,1.0000,0.0009,0.0002,0.0004,-0.0008,-0.0041,-0.5468,0
18860718,1.0000,0.0009,0.0002,0.0004,0.0120,0.0031,-0.5458,0
18860885,1.0000,0.0009,0.0002,0.0004,-0.0010,-0.0061,-0.5317,0
18861052,1.0000,0.0009,0.0002,0.0004,0.0105,-0.0019,-0.5418,0
18861218,1.0000,0.0010,0.0002,0.0004,0.0044,-0.0033,-0.5468,0
18861385,1.0000,0.0010,0.0002,0.0004,0.0059,0.0061,-0.5258,0
18861552,1.0000,0.0009,0.0002,0.0004,0.0009,-0.0053,-0.5620,0
18861718,1.0000,0.0010,0.0002,0.0004,-0.0045,0.0003,-0.5585,0
18861885,1.0000,0.0010,0.0002,0.0004,0.0082,-0.0114,-0.5337,0
18862052,1.0000,0.0010,0.0002,0.0004,0.0079,0.0001,-0.5285,0
18862218,1.0000,0.0010,0.0002,0.0004,-0.0024,0.0018,-0.5330,0
18862385,1.0000,0.0010,0.0002,0.0004,0.0105,0.0009,-0.5550,0
18862552,1.0000,0.0009,0.0002,0.0004,0.0009,0.0038,-0.5226,0
18862718,1.0000,0.0009,0.0002,0.0005,0.0051,-0.0130,-0.5605,0
18862885,1.0000,0.0010,0.0002,0.0005,-0.0077,-0.0073,-0.5350,0
18863052,1.0000,0.0010,0.0002,0.0005,0.0056,0.0067,-0.5480,0
18863218,1.0000,0.0010,0.0002,0.0005,-0.0109,-0.0027,-0.5439,0
18863385,1.0000,0.0010,0.0001,0.0005,-0.0025,-0.0107,-0.5793,0
18863552,1.0000,0.0010,0.0001,0.0005,0.0011,-0.0066,-0.4782,0
18863718,1.0000,0.0010,0.0001,0.0005,0.0100,-0.0151,-0.5873,0
18863885,1.0000,0.0010,0.0001,0.0005,0.0204,-0.0172,-0.5699,0
18864052,1.0000,0.0010,0.0001,0.0005,0.0017,0.0119,-0.4510,0
18864218,1.0000,0.0010,0.0001,0.0005,0.0067,0.0172,-0.5986,0
18864385,1.0000,0.0010,0.0001,0.0005,-0.0029,-0.0060,-0.5368,0
18864552,1.0000,0.0010,0.0001,0.0005,0.0028,0.0021,-0.5060,0
18864718,1.0000,0.0010,0.0001,0.0005,0.0106,-0.0024,-0.5943,0
18864885,1.0000,0.0010,0.0001,0.0005,-0.0094,-0.0221,-0.4949,0
18865052,1.0000,0.0010,0.0002,0.0005,0.0147,0.0073,-0.5503,0
18865218,1.0000,0.0010,0.0002,0.0005,-0.0069,0.0094,-0.5722,0
18865385,1.0000,0.0010,0.0001,0.0005,-0.0076,-0.0128,-0.4690,0
18865552,1.0000,0.0010,0.0002,0.0005,-0.0000,-0.0071,-0.6026,0
18865718,1.0000,0.0010,0.0002,0.0005,-0.0014,0.0179,-0.5555,0
18865885,1.0000,0.0010,0.0002,0.0005,-0.0050,-0.0058,-0.5057,0
18866052,1.0000,0.0010,0.0002,0.0005,-0.0116,-0.0044,-0.5834,0
18866218,1.0000,0.0010,0.0001,0.0005,0.0085,0.0126,-0.4895,0
18866385,1.0000,0.0010,0.0002,0.0005,-0.0012,-0.0293,-0.5263,0
18866552,1.0000,0.0010,0.0002,0.0005,0.0146,-0.0160,-0.5921,0
