SampleTimeFine,Quat_W,Quat_X,Quat_Y,Quat_Z,FreeAcc_X,FreeAcc_Y,FreeAcc_Z,Status
7914350,0.9998,-0.0036,-0.0004,-0.0192,-0.0153,-0.006,0.0794,0
7914516,0.9998,-0.0033,-0.0003,-0.0192,-0.0019,-0.0278,0.0726,0
7914683,0.9998,-0.0033,-0.0003,-0.0191,-0.0123,-0.0394,0.1066,0
7914850,0.9998,-0.0033,-0.0003,-0.0191,-0.0066,-0.0241,0.1102,0
7915016,0.9998,-0.0033,-0.0004,-0.0189,-0.0092,-0.0248,0.0674,0
7915183,0.9998,-0.0032,-0.0004,-0.0189,0.0062,-0.0054,0.0985,0
7915350,0.9998,-0.003,-0.0005,-0.0188,-0.0216,-0.0255,0.083,0
7915516,0.9998,-0.0028,-0.0005,-0.0189,-0.0263,-0.0197,0.0728,0
7915683,0.9998,-0.0026,-0.0006,-0.0189,-0.0309,-0.0404,0.0924,0
7915850,0.9998,-0.0024,-0.0006,-0.0188,-0.023,-0.0545,0.105,0
7916016,0.9998,-0.0023,-0.0006,-0.0187,-0.0168,-0.0371,0.0793,0
7916183,0.9998,-0.0021,-0.0007,-0.0187,-0.0185,-0.0359,0.084,0
7916350,0.9998,-0.0019,-0.0007,-0.0186,-0.0224,-0.0494,0.0978,0
7916516,0.9998,-0.0017,-0.0008,-0.0185,-0.0204,-0.0666,0.0913,0
7916683,0.9998,-0.0016,-0.0008,-0.0185,-0.0272,-0.0681,0.0809,0
7916850,0.9998,-0.0014,-0.0009,-0.0185,-0.0138,-0.0823,0.0768,0
7917016,0.9998,-0.0012,-0.0009,-0.0184,-0.0321,-0.0809,0.0801,0
7917183,0.9998,-0.001,-0.001,-0.0184,-0.0289,-0.0745,0.0864,0
7917350,0.9998,-0.0009,-0.001,-0.0183,-0.0249,-0.0603,0.0996,0
7917516,0.9998,-0.0007,-0.0011,-0.0183,-0.0277,-0.0781,0.0962,0
7917683,0.9998,-0.0005,-0.0012,-0.0183,-0.0247,-0.083,0.0992,0
7917850,0.9998,-0.0003,-0.0012,-0.0183,-0.0232,-0.0885,0.0899,0
7918016,0.9998,-0.0001,-0.0013,-0.0183,-0.0357,-0.0967,0.0828,0
7918183,0.9998,0,-0.0014,-0.0183,-0.0378,-0.0897,0.0893,0
7918350,0.9998,0.0002,-0.0014,-0.0183,-0.0449,-0.0836,0.1041,0
7918516,0.9998,0.0004,-0.0015,-0.0182,-0.0327,-0.1005,0.0748,0
7918683,0.9998,0.0006,-0.0016,-0.0183,-0.0219,-0.0934,0.0973,0
7918850,0.9998,0.0008,-0.0016,-0.0182,-0.0428,-0.1126,0.0893,0
7919016,0.9998,0.001,-0.0017,-0.0182,-0.0435,-0.111,0.0878,0
7919183,0.9998,0.0011,-0.0017,-0.0181,-0.0449,-0.1215,0.0961,0
7919350,0.9998,0.0013,-0.0018,-0.0181,-0.0488,-0.1194,0.0871,0
7919516,0.9998,0.0015,-0.0019,-0.018,-0.0358,-0.1121,0.0983,0
7919683,0.9998,0.0017,-0.0019,-0.018,-0.0348,-0.1298,0.0847,0
7919850,0.9998,0.0019,-0.002,-0.018,-0.0277,-0.1226,0.0855,0
7920016,0.9998,0.0021,-0.0021,-0.018,-0.0443,-0.1291,0.0746,0
7920183,0.9998,0.0023,-0.0021,-0.0179,-0.0557,-0.1389,0.0918,0
7920350,0.9998,0.0025,-0.0022,-0.0178,-0.055,-0.1387,0.0891,0
7920516,0.9998,0.0027,-0.0023,-0.0178,-0.058,-0.1522,0.0863,0
7920683,0.9998,0.0029,-0.0023,-0.0178,-0.0468,-0.1446,0.1061,0
7920850,0.9998,0.003,-0.0024,-0.0178,-0.0498,-0.1453,0.0894,0
7921016,0.9998,0.0032,-0.0025,-0.0177,-0.0571,-0.1474,0.0744,0
7921183,0.9998,0.0034,-0.0025,-0.0177,-0.058,-0.1534,0.1097,0
7921350,0.9998,0.0036,-0.0026,-0.0177,-0.0545,-0.1548,0.0928,0
7921516,0.9998,0.0038,-0.0027,-0.0176,-0.0601,-0.1659,0.0827,0
7921683,0.9998,0.004,-0.0027,-0.0176,-0.0693,-0.1457,0.0704,0
7921850,0.9998,0.0042,-0.0028,-0.0175,-0.0538,-0.1743,0.0867,0
7922016,0.9998,0.0044,-0.0029,-0.0175,-0.0567,-0.1763,0.0956,0
7922183,0.9998,0.0046,-0.0029,-0.0175,-0.0669,-0.1922,0.0893,0
7922350,0.9998,0.0048,-0.003,-0.0175,-0.0738,-0.179,0.0824,0
7922516,0.9998,0.005,-0.003,-0.0174,-0.0854,-0.1837,0.0763,0
7922683,0.9998,0.0051,-0.0031,-0.0174,-0.0704,-0.1953,0.0867,0
7922850,0.9998,0.0053,-0.0032,-0.0173,-0.0686,-0.191,0.1095,0
7923016,0.9998,0.0055,-0.0032,-0.0173,-0.0669,-0.2072,0.1007,0
7923183,0.9998,0.0057,-0.0033,-0.0172,-0.0652,-0.1963,0.1011,0
7923350,0.9998,0.0059,-0.0034,-0.0172,-0.069,-0.1989,0.099,0
7923516,0.9998,0.0061,-0.0035,-0.0171,-0.0897,-0.2195,0.099,0
7923683,0.9998,0.0063,-0.0035,-0.0171,-0.0811,-0.2133,0.0816,0
7923850,0.9998,0.0064,-0.0036,-0.0171,-0.0807,-0.209,0.0996,0
7924016,0.9998,0.0066,-0.0037,-0.017,-0.0855,-0.2261,0.0721,0
7924183,0.9998,0.0068,-0.0037,-0.017,-0.0576,-0.2195,0.0998,0
7924350,0.9998,0.007,-0.0038,-0.017,-0.061,-0.2205,0.0931,0
7924516,0.9998,0.0072,-0.0039,-0.0169,-0.0915,-0.2368,0.0957,0
7924683,0.9998,0.0074,-0.0039,-0.0169,-0.0875,-0.2359,0.0914,0
7924850,0.9998,0.0075,-0.004,-0.0168,-0.1023,-0.2393,0.0767,0
7925016,0.9998,0.0077,-0.004,-0.0168,-0.0854,-0.2455,0.0837,0
7925183,0.9998,0.0079,-0.0041,-0.0168,-0.0834,-0.2488,0.1029,0
7925350,0.9998,0.0081,-0.0042,-0.0167,-0.0841,-0.2443,0.0886,0
7925516,0.9998,0.0083,-0.0042,-0.0167,-0.082,-0.2464,0.106,0
7925683,0.9998,0.0084,-0.0043,-0.0166,-0.094,-0.259,0.0932,0
7925850,0.9998,0.0086,-0.0044,-0.0166,-0.092,-0.2663,0.0816,0
7926016,0.9998,0.0088,-0.0044,-0.0165,-0.1103,-0.2616,0.0899,0
7926183,0.9998,0.0089,-0.0045,-0.0165,-0.1057,-0.2659,0.078,0
7926350,0.9998,0.0091,-0.0046,-0.0165,-0.1,-0.28,0.1098,0
7926516,0.9998,0.0093,-0.0046,-0.0165,-0.1006,-0.2678,0.0885,0
7926683,0.9998,0.0094,-0.0047,-0.0164,-0.0881,-0.2787,0.0985,0
7926850,0.9998,0.0096,-0.0047,-0.0164,-0.1042,-0.2666,0.0835,0
7927016,0.9998,0.0098,-0.0048,-0.0164,-0.1112,-0.2796,0.0919,0
7927183,0.9998,0.0099,-0.0049,-0.0163,-0.119,-0.2941,0.0826,0
7927350,0.9998,0.0101,-0.0049,-0.0163,-0.1118,-0.3011,0.0996,0
7927516,0.9998,0.0103,-0.005,-0.0163,-0.1132,-0.3083,0.0693,0
7927683,0.9998,0.0104,-0.005,-0.0163,-0.1104,-0.2872,0.0968,0
7927850,0.9998,0.0106,-0.0051,-0.0162,-0.1072,-0.2944,0.1071,0
7928016,0.9998,0.0107,-0.0051,-0.0162,-0.108,-0.3019,0.0861,0
7928183,0.9998,0.0109,-0.0052,-0.0162,-0.1137,-0.2901,0.095,0
7928350,0.9998,0.011,-0.0052,-0.0161,-0.1203,-0.3071,0.0901,0
7928516,0.9998,0.0112,-0.0053,-0.0161,-0.1163,-0.3092,0.1019,0
7928683,0.9998,0.0113,-0.0053,-0.0161,-0.1116,-0.3123,0.0982,0
7928850,0.9998,0.0115,-0.0054,-0.0161,-0.1035,-0.3312,0.0808,0
7929016,0.9998,0.0117,-0.0055,-0.016,-0.112,-0.3086,0.1035,0
7929183,0.9998,0.0118,-0.0055,-0.016,-0.111,-0.3063,0.0992,0
7929350,0.9998,0.0119,-0.0055,-0.016,-0.1218,-0.3267,0.0612,0
7929516,0.9998,0.0121,-0.0056,-0.0159,-0.1136,-0.3301,0.0732,0
7929683,0.9998,0.0122,-0.0057,-0.0159,-0.1167,-0.3412,0.0786,0
7929850,0.9998,0.0124,-0.0057,-0.0158,-0.1328,-0.3415,0.0997,0
7930017,0.9998,0.0125,-0.0057,-0.0158,-0.1137,-0.329,0.0833,0
7930183,0.9998,0.0126,-0.0058,-0.0158,-0.1206,-0.3244,0.1139,0
7930350,0.9998,0.0128,-0.0058,-0.0157,-0.1261,-0.3337,0.0624,0
7930517,0.9998,0.0129,-0.0059,-0.0157,-0.1323,-0.3423,0.0853,0
7930683,0.9998,0.013,-0.0059,-0.0157,-0.1143,-0.3533,0.0902,0
7930850,0.9998,0.0131,-0.006,-0.0157,-0.1243,-0.3513,0.09,0
7931017,0.9998,0.0133,-0.006,-0.0156,-0.1308,-0.3585,0.0654,0
7931183,0.9998,0.0134,-0.0061,-0.0156,-0.1267,-0.3535,0.0913,0
7931350,0.9998,0.0135,-0.0061,-0.0156,-0.1185,-0.3408,0.0864,0
7931517,0.9998,0.0136,-0.0061,-0.0156,-0.132,-0.352,0.0936,0
7931683,0.9998,0.0137,-0.0062,-0.0155,-0.149,-0.3691,0.0994,0
7931850,0.9998,0.0138,-0.0062,-0.0155,-0.1205,-0.3771,0.0817,0
7932017,0.9998,0.014,-0.0062,-0.0155,-0.138,-0.3724,0.1018,0
7932183,0.9998,0.0141,-0.0063,-0.0154,-0.1385,-0.3611,0.1068,0
7932350,0.9998,0.0142,-0.0063,-0.0154,-0.1242,-0.3749,0.0974,0
7932517,0.9998,0.0143,-0.0064,-0.0154,-0.1378,-0.3674,0.0767,0
7932683,0.9998,0.0144,-0.0064,-0.0153,-0.1381,-0.3712,0.0815,0
7932850,0.9998,0.0145,-0.0064,-0.0153,-0.1375,-0.3858,0.0805,0
7933017,0.9998,0.0146,-0.0065,-0.0153,-0.1534,-0.3851,0.0615,0
7933183,0.9998,0.0147,-0.0065,-0.0153,-0.1393,-0.3886,0.1027,0
7933350,0.9998,0.0148,-0.0065,-0.0153,-0.1419,-0.3765,0.0633,0
7933517,0.9998,0.0148,-0.0066,-0.0152,-0.1324,-0.3703,0.094,0
7933683,0.9998,0.0149,-0.0066,-0.0152,-0.1355,-0.3824,0.0924,0
7933850,0.9998,0.015,-0.0066,-0.0151,-0.1455,-0.3852,0.07,0
7934017,0.9998,-0.0049,0.0004,-0.0174,0.0183,-0.0038,0.0989,0
7934183,0.9998,-0.0049,0.0004,-0.0174,0.0085,-0.0008,0.0891,0
7934350,0.9998,-0.0049,0.0004,-0.0174,0.0107,0.0054,0.1,0
7934517,0.9998,-0.0049,0.0004,-0.0174,0.0126,0.0041,0.0817,0
7934683,0.9998,-0.0049,0.0004,-0.0174,-0.0024,-0.0049,0.0881,0
7934850,0.9998,-0.0049,0.0004,-0.0174,0.0084,-0.003,0.1084,0
7935017,0.9998,-0.0049,0.0004,-0.0174,-0.0124,0.0099,0.0889,0
7935183,0.9998,-0.0049,0.0004,-0.0175,0.014,0.0111,0.1129,0
7935350,0.9998,-0.0049,0.0004,-0.0175,0.0063,-0.0012,0.0998,0
7935517,0.9998,-0.0049,0.0004,-0.0175,0.0084,0.0166,0.1009,0
7935683,0.9998,-0.0049,0.0004,-0.0175,-0.009,0.0011,0.0985,0
7935850,0.9998,-0.0049,0.0004,-0.0175,0.0002,0.0083,0.0806,0
7936017,0.9998,-0.0049,0.0004,-0.0175,0.001,0.0004,0.076,0
7936183,0.9998,-0.0049,0.0004,-0.0175,0.0068,-0.0029,0.1013,0
7936350,0.9998,-0.0049,0.0004,-0.0175,0.0002,0.0118,0.0894,0
7936517,0.9998,-0.0049,0.0003,-0.0175,0.0112,0.0057,0.0878,0
7936683,0.9998,-0.0049,0.0003,-0.0175,0.0055,0.009,0.1069,0
7936850,0.9998,-0.0049,0.0003,-0.0175,0.0068,0.0085,0.106,0
7937017,0.9998,-0.0049,0.0003,-0.0176,-0.0017,-0.0042,0.0922,0
7937183,0.9998,-0.005,0.0003,-0.0176,0.0038,-0.0135,0.0887,0
7937350,0.9998,-0.0049,0.0003,-0.0176,-0.0101,0.0007,0.1082,0
7937517,0.9998,-0.005,0.0003,-0.0176,-0.0052,0.006,0.1018,0
7937683,0.9998,-0.005,0.0003,-0.0176,0.0061,0.0055,0.0894,0
7937850,0.9998,-0.005,0.0003,-0.0176,0.0017,0.0047,0.0992,0
7938017,0.9998,-0.005,0.0003,-0.0176,0.008,0.0046,0.0833,0
7938183,0.9998,-0.005,0.0003,-0.0176,-0.0112,-0.0078,0.1004,0
7938350,0.9998,-0.005,0.0003,-0.0176,-0.0034,-0.0053,0.1021,0
7938517,0.9998,-0.005,0.0003,-0.0176,0.0068,-0.0025,0.1025,0
7938683,0.9998,-0.005,0.0003,-0.0176,-0.007,0.0073,0.1098,0
7938850,0.9998,-0.005,0.0003,-0.0177,-0.0128,-0.0004,0.0845,0
7939017,0.9998,-0.005,0.0003,-0.0177,0.0036,0.012,0.0823,0
7939183,0.9998,-0.0049,0.0003,-0.0177,0.0033,0.0128,0.0833,0
7939350,0.9998,-0.0049,0.0003,-0.0177,0.0125,-0.004,0.0975,0
7939517,0.9998,-0.0049,0.0003,-0.0177,0.0158,-0.0182,0.1112,0
7939683,0.9998,-0.0049,0.0003,-0.0177,0.0168,0.0032,0.1182,0
7939850,0.9998,-0.0049,0.0003,-0.0177,0.009,0.0147,0.0917,0
7940017,0.9998,-0.0049,0.0003,-0.0177,-0.0065,0.0034,0.1051,0
7940183,0.9998,-0.0049,0.0003,-0.0177,-0.0009,0.0077,0.0684,0
7940350,0.9998,-0.0049,0.0003,-0.0177,-0.0001,0.0134,0.0958,0
7940517,0.9998,-0.0049,0.0003,-0.0177,-0.0036,-0.0149,0.0884,0
7940683,0.9998,-0.0049,0.0003,-0.0177,-0.0015,0.0047,0.0972,0
7940850,0.9998,-0.0049,0.0003,-0.0177,0.0138,0.0002,0.0897,0
7941017,0.9998,-0.0049,0.0003,-0.0177,0.0015,0.0034,0.0949,0
7941183,0.9998,-0.0049,0.0003,-0.0177,-0.0006,0.0125,0.0932,0
7941350,0.9998,-0.0049,0.0003,-0.0177,-0.0192,-0.0039,0.0838,0
7941517,0.9998,-0.0049,0.0003,-0.0178,-0.0017,-0.0099,0.0929,0
7941683,0.9998,-0.0049,0.0003,-0.0178,-0.0082,-0.0083,0.0827,0
7941850,0.9998,-0.0049,0.0003,-0.0178,-0.0008,-0.0058,0.1004,0
7942017,0.9998,-0.0049,0.0003,-0.0178,0.0107,0.0181,0.1096,0
7942183,0.9998,-0.0049,0.0003,-0.0178,0.0004,0.0029,0.1114,0
7942350,0.9998,-0.0049,0.0003,-0.0178,0.0015,0.0058,0.0755,0
7942517,0.9998,-0.0049,0.0003,-0.0178,-0.0155,-0.0011,0.0964,0
7942683,0.9998,-0.0049,0.0003,-0.0178,-0.0109,0.0019,0.0945,0
7942850,0.9998,-0.0049,0.0003,-0.0178,0.0123,0.008,0.0868,0
7943017,0.9998,-0.0049,0.0003,-0.0178,-0.0089,-0.0047,0.0807,0
7943183,0.9998,-0.0049,0.0003,-0.0178,0.0317,-0.002,0.0865,0
7943350,0.9998,-0.0049,0.0003,-0.0178,0.0078,0.0133,0.0837,0
7943517,0.9998,-0.0049,0.0003,-0.0178,0.0016,-0.0055,0.1034,0
7943683,0.9998,-0.0049,0.0003,-0.0178,-0.0032,-0.0004,0.087,0
7943850,0.9998,-0.0049,0.0003,-0.0179,-0.0023,-0.0028,0.075,0
7944017,0.9998,-0.0049,0.0003,-0.0179,-0.0008,0.0104,0.0964,0
7944183,0.9998,-0.0049,0.0003,-0.0179,-0.0053,0.0083,0.1034,0
7944350,0.9998,-0.0049,0.0003,-0.0179,0.0094,0.0056,0.1027,0
7944517,0.9998,-0.0049,0.0002,-0.0179,0.0169,0.0058,0.102,0
7944683,0.9998,-0.0049,0.0002,-0.0179,0.0099,0.0003,0.1066,0
7944850,0.9998,-0.0049,0.0002,-0.0179,0.0048,-0.0074,0.0848,0
7945017,0.9998,-0.0049,0.0002,-0.0179,-0.0036,-0.0031,0.1042,0
7945183,0.9998,-0.0049,0.0002,-0.0179,-0.019,-0.0058,0.0943,0
7945350,0.9998,-0.0049,0.0002,-0.0179,-0.0037,0.0047,0.0806,0
7945517,0.9998,-0.0049,0.0002,-0.0179,0.0046,0.0124,0.1031,0
7945683,0.9998,-0.0049,0.0002,-0.0179,-0.0032,0.0058,0.0915,0
7945850,0.9998,-0.0049,0.0002,-0.0179,-0.0019,-0.0086,0.1019,0
7946017,0.9998,-0.0049,0.0002,-0.0179,-0.0125,-0.0008,0.0964,0
7946183,0.9998,-0.0049,0.0002,-0.0179,0.004,-0.0157,0.0731,0
7946350,0.9998,-0.0049,0.0002,-0.018,0.0043,-0.0008,0.1058,0
7946517,0.9998,-0.0049,0.0002,-0.018,0.0039,-0.0047,0.1108,0
7946684,0.9998,-0.0049,0.0002,-0.0179,0.0001,0.0115,0.0974,0
7946850,0.9998,-0.0049,0.0002,-0.0179,-0.016,-0.005,0.1222,0
7947017,0.9998,-0.0049,0.0002,-0.0179,0.0009,0.0046,0.0895,0
7947184,0.9998,-0.0049,0.0002,-0.018,-0.0114,-0.0119,0.1171,0
7947350,0.9998,-0.0049,0.0002,-0.018,-0.0061,0.0005,0.107,0
7947517,0.9998,-0.0049,0.0002,-0.018,-0.0021,0.0037,0.0795,0
7947684,0.9998,-0.0049,0.0002,-0.018,-0.0009,-0.0075,0.0898,0
7947850,0.9998,-0.0049,0.0002,-0.018,0.0096,-0.0036,0.0984,0
7948017,0.9998,-0.0049,0.0002,-0.018,0.0184,-0.0112,0.1039,0
7948184,0.9998,-0.0049,0.0002,-0.018,-0.0052,-0.0033,0.082,0
7948350,0.9998,-0.0049,0.0002,-0.018,-0.0194,-0.003,0.1087,0
7948517,0.9998,-0.0049,0.0002,-0.018,-0.0103,-0.0111,0.0956,0
7948684,0.9998,-0.0049,0.0002,-0.018,0.0029,-0.0116,0.1056,0
7948850,0.9998,-0.0049,0.0002,-0.018,0.0041,-0.0067,0.0564,0
7949017,0.9998,-0.0049,0.0002,-0.018,0.0117,0.0058,0.1425,0
7949184,0.9998,-0.0049,0.0002,-0.018,0.0058,-0.0007,0.065,0
7949350,0.9998,-0.0049,0.0002,-0.018,0.0159,0.0063,0.1324,0
7949517,0.9998,-0.0049,0.0002,-0.018,-0.0077,0.0115,0.1044,0
7949684,0.9998,-0.0049,0.0002,-0.018,-0.008,-0.0174,0.0427,0
7949850,0.9998,-0.0049,0.0002,-0.018,-0.0071,-0.0049,0.0959,0
7950017,0.9998,-0.0049,0.0002,-0.0181,0.0035,-0.0036,0.0956,0
7950184,0.9998,-0.0049,0.0002,-0.018,0.0071,-0.007,0.1265,0
7950350,0.9998,-0.0049,0.0002,-0.0181,0.0082,-0.0026,0.1036,0
7950517,0.9998,-0.0049,0.0002,-0.0181,-0.0091,0.0066,0.1121,0
7950684,0.9998,-0.0049,0.0002,-0.0181,-0.0115,-0.0021,0.113,0
7950850,0.9998,-0.0049,0.0002,-0.0181,-0.0031,-0.0092,0.0656,0
7951017,0.9998,-0.0049,0.0002,-0.0181,-0.0002,0.0066,0.1182,0
7951184,0.9998,-0.0049,0.0002,-0.0181,-0.0028,-0.0064,0.0971,0
7951350,0.9998,-0.0049,0.0002,-0.0181,0.015,-0.0056,0.085,0
7951517,0.9998,-0.0049,0.0002,-0.0181,0.0143,0.0117,0.1437,0
7951684,0.9998,-0.0049,0.0002,-0.0181,0.0081,0.0124,0.1046,0
7951850,0.9998,-0.0049,0.0002,-0.0181,0.0017,0.0079,0.0835,0
7952017,0.9998,-0.0049,0.0002,-0.0181,-0.0057,-0.0024,0.1081,0
7952184,0.9998,-0.0049,0.0002,-0.0181,-0.0064,-0.0067,0.0977,0
7952350,0.9998,-0.0049,0.0002,-0.0181,-0.0049,-0.0123,0.1196,0
7952517,0.9998,-0.0049,0.0002,-0.0181,0.0157,0.002,0.1064,0
7952684,0.9998,-0.0049,0.0002,-0.0181,0.013,0.0079,0.0819,0
7952850,0.9998,-0.0049,0.0002,-0.0181,0.0025,0.0094,0.0927,0
7953017,0.9998,-0.0049,0.0002,-0.0181,-0.0157,-0.01,0.0664,0
7953184,0.9998,-0.0049,0.0002,-0.0181,-0.0138,0.0012,0.0999,0
7953350,0.9998,-0.0049,0.0002,-0.0181,-0.002,-0.0128,0.0926,0
7953517,0.9998,-0.0049,0.0002,-0.0181,0.0043,0.0018,0.0883,0
7953684,0.9998,-0.0049,0.0002,-0.0181,0.0105,0.0126,0.1118,0
7953850,0.9998,-0.0049,0.0003,-0.0181,0.0038,0.011,0.1134,0
7954017,0.9998,-0.0049,0.0003,-0.0181,-0.0104,0.0136,0.0855,0
7954184,0.9998,-0.0049,0.0003,-0.0181,-0.0117,-0.0057,0.0823,0
7954350,0.9998,-0.0049,0.0003,-0.0181,-0.0173,-0.0011,0.0766,0
7954517,0.9998,-0.0049,0.0003,-0.0181,0.0076,-0.0208,0.1082,0
7954684,0.9998,-0.0049,0.0003,-0.0181,0,0.0015,0.0842,0
7954850,0.9998,-0.0049,0.0003,-0.0181,0.0033,0.0175,0.1096,0
7955017,0.9998,-0.0049,0.0003,-0.0181,0.0068,0.0112,0.0973,0
7955184,0.9998,-0.0049,0.0003,-0.0181,0.0071,-0.0008,0.0808,0
7955350,0.9998,-0.0049,0.0003,-0.0182,-0.0123,0.0062,0.095,0
7955517,0.9998,-0.0049,0.0003,-0.0182,-0.0019,-0.0019,0.0865,0
7955684,0.9998,-0.0049,0.0003,-0.0182,0.0007,-0.007,0.0863,0
7955850,0.9998,-0.0049,0.0003,-0.0182,0.013,0.0133,0.0886,0
7956017,0.9998,-0.0049,0.0003,-0.0182,0.0238,0.0249,0.1176,0
7956184,0.9998,-0.0049,0.0004,-0.0182,-0.0045,0.0182,0.1252,0
7956350,0.9998,-0.0049,0.0004,-0.0182,-0.0016,0.0031,0.0869,0
7956517,0.9998,-0.0049,0.0004,-0.0182,-0.0046,0.0008,0.0939,0
7956684,0.9998,-0.0049,0.0004,-0.0182,-0.0193,-0.0142,0.102,0
7956850,0.9998,-0.0049,0.0004,-0.0182,-0.0006,-0.0144,0.1035,0
7957017,0.9998,-0.0049,0.0004,-0.0182,0.0221,0.0126,0.083,0
7957184,0.9998,-0.0049,0.0004,-0.0182,0.0175,0.0157,0.099,0
7957350,0.9998,-0.0049,0.0004,-0.0182,0.0071,0.0083,0.0778,0
7957517,0.9998,-0.0049,0.0004,-0.0182,-0.008,0.0033,0.0853,0
7957684,0.9998,-0.0049,0.0004,-0.0182,-0.0078,-0.002,0.0801,0
7957850,0.9998,-0.0049,0.0004,-0.0182,-0.0035,-0.0135,0.0742,0
7958017,0.9998,-0.0049,0.0004,-0.0182,0.0121,-0.0029,0.0928,0
7958184,0.9998,-0.0049,0.0004,-0.0182,0.0254,0.0095,0.1123,0
7958350,0.9998,-0.0049,0.0004,-0.0182,0.0229,0.0256,0.1176,0
7958517,0.9998,-0.0049,0.0004,-0.0182,0.0123,0.0124,0.1065,0
7958684,0.9998,-0.0049,0.0004,-0.0182,0.0039,-0.0051,0.0975,0
7958850,0.9998,-0.0049,0.0004,-0.0182,-0.0053,-0.0088,0.095,0
7959017,0.9998,-0.0049,0.0004,-0.0182,-0.0215,-0.0151,0.0617,0
7959184,0.9998,-0.0049,0.0004,-0.0183,-0.0055,-0.0053,0.0841,0
7959350,0.9998,-0.0049,0.0004,-0.0183,0.0156,0.0122,0.0993,0
7959517,0.9998,-0.0049,0.0004,-0.0183,0.0124,0.0165,0.1041,0
7959684,0.9998,-0.0049,0.0004,-0.0183,0.0078,0.0085,0.0807,0
7959850,0.9998,-0.0049,0.0004,-0.0183,0.0077,-0.0075,0.0943,0
7960017,0.9998,-0.0049,0.0004,-0.0183,-0.0088,-0.0198,0.0707,0
7960184,0.9998,-0.0049,0.0004,-0.0183,-0.02,-0.0057,0.0828,0
7960350,0.9998,-0.0049,0.0004,-0.0183,0.0077,0.0039,0.1214,0
7960517,0.9998,-0.0049,0.0004,-0.0183,0.0141,0.0175,0.1117,0
7960684,0.9998,-0.0049,0.0004,-0.0183,0.0349,0.0147,0.1179,0
7960850,0.9998,-0.0049,0.0004,-0.0183,0.0102,0.0158,0.1054,0
7961017,0.9998,-0.0049,0.0004,-0.0183,0.0029,-0.0057,0.1169,0
7961184,0.9998,-0.0049,0.0004,-0.0183,-0.0122,0.0041,0.089,0
7961350,0.9998,-0.0049,0.0004,-0.0183,-0.0184,0.0039,0.0905,0
7961517,0.9998,-0.0049,0.0004,-0.0183,-0.0049,-0.0086,0.114,0
7961684,0.9998,-0.0049,0.0004,-0.0183,0.0084,0.0033,0.0986,0
7961850,0.9998,-0.0049,0.0004,-0.0183,0.0182,0.0183,0.0931,0
7962017,0.9998,-0.0049,0.0004,-0.0183,0.0145,-0.0019,0.1039,0
7962184,0.9998,-0.0049,0.0004,-0.0184,0.0123,-0.0119,0.1121,0
7962350,0.9998,-0.0049,0.0004,-0.0184,-0.0087,-0.012,0.082,0
7962517,0.9998,-0.0049,0.0004,-0.0184,-0.0085,-0.027,0.0707,0
7962684,0.9998,-0.0049,0.0004,-0.0184,-0.0028,0.0093,0.0924,0
7962850,0.9998,-0.0049,0.0004,-0.0184,0.018,0.0051,0.1022,0
7963017,0.9998,-0.0049,0.0004,-0.0184,0.0184,0.0127,0.0877,0
7963184,0.9998,-0.0049,0.0004,-0.0184,0.0056,0.0119,0.1173,0
7963351,0.9998,-0.0049,0.0004,-0.0184,0.0027,-0.0032,0.0837,0
7963517,0.9998,-0.0049,0.0004,-0.0184,-0.0241,-0.0046,0.0752,0
7963684,0.9998,-0.0049,0.0004,-0.0184,-0.0159,0.0029,0.0802,0
7963851,0.9998,-0.0049,0.0004,-0.0184,0.0013,-0.0084,0.0581,0
7964017,0.9998,-0.0049,0.0004,-0.0184,0.0164,0.0166,0.108,0
7964184,0.9998,-0.0049,0.0004,-0.0184,0.0155,-0.0101,0.1237,0
7964351,0.9998,-0.0049,0.0004,-0.0184,0.0094,-0.0105,0.0863,0
7964517,0.9998,-0.0049,0.0004,-0.0184,-0.0062,0.0064,0.0921,0
7964684,0.9998,-0.0049,0.0004,-0.0184,-0.0236,-0.0026,0.057,0
7964851,0.9998,-0.0049,0.0004,-0.0184,-0.0182,-0.0071,0.0509,0
7965017,0.9998,-0.0049,0.0004,-0.0184,-0.0023,0.0015,0.0949,0
7965184,0.9998,-0.0049,0.0004,-0.0184,0.0148,0.0011,0.1317,0
7965351,0.9998,-0.0049,0.0004,-0.0184,0.0175,0.0067,0.1243,0
7965517,0.9998,-0.0049,0.0004,-0.0184,0.0203,0.0097,0.1005,0
7965684,0.9998,-0.0049,0.0004,-0.0184,-0.0055,-0.0083,0.1059,0
7965851,0.9998,-0.0049,0.0004,-0.0184,-0.0108,-0.0092,0.074,0
7966017,0.9998,-0.0049,0.0004,-0.0184,-0.0166,0.0009,0.0706,0
7966184,0.9998,-0.0049,0.0004,-0.0184,-0.0109,0.0031,0.1152,0
7966351,0.9998,-0.0049,0.0004,-0.0184,0.0145,0.0114,0.0985,0
7966517,0.9998,-0.0049,0.0004,-0.0184,0.0205,0.0238,0.0984,0
7966684,0.9998,-0.0049,0.0004,-0.0184,0.0108,0.0019,0.0873,0
7966851,0.9998,-0.0049,0.0004,-0.0184,0.0078,-0.0005,0.1011,0
7967017,0.9998,-0.0049,0.0004,-0.0185,-0.015,-0.0045,0.0822,0
7967184,0.9998,-0.0049,0.0004,-0.0185,-0.0236,-0.0206,0.0769,0
7967351,0.9998,-0.0049,0.0004,-0.0185,-0.0081,-0.0038,0.1019,0
7967517,0.9998,-0.0049,0.0004,-0.0184,0.0089,0.0052,0.1283,0
7967684,0.9998,-0.0049,0.0004,-0.0184,0.0147,0.0038,0.109,0
7967851,0.9998,-0.0049,0.0004,-0.0184,0.0226,0.0156,0.0998,0
7968017,0.9998,-0.0049,0.0004,-0.0184,0.0015,0.0137,0.1047,0
7968184,0.9998,-0.0049,0.0004,-0.0184,-0.0058,0.0089,0.0622,0
7968351,0.9998,-0.0049,0.0004,-0.0185,-0.0123,-0.0031,0.0747,0
7968517,0.9998,-0.0049,0.0004,-0.0184,-0.009,-0.0045,0.0838,0
7968684,0.9998,-0.0049,0.0004,-0.0184,0.0009,0.0166,0.0774,0
7968851,0.9998,-0.0049,0.0004,-0.0185,0.0071,0.0097,0.1083,0
7969017,0.9998,-0.0049,0.0004,-0.0185,0.015,0.011,0.0935,0
7969184,0.9998,-0.0049,0.0004,-0.0185,-0.0003,0.0045,0.0931,0
7969351,0.9998,-0.0049,0.0004,-0.0185,0.0017,-0.0222,0.0736,0
7969517,0.9998,-0.0049,0.0004,-0.0185,-0.0102,-0.0056,0.081,0
7969684,0.9998,-0.0049,0.0004,-0.0185,-0.0097,0.0041,0.0781,0
7969851,0.9998,-0.0049,0.0004,-0.0185,-0.0054,0.0082,0.0997,0
7970017,0.9998,-0.0049,0.0004,-0.0185,0.0223,0.004,0.1104,0
7970184,0.9998,-0.0049,0.0004,-0.0185,0.0213,0.0039,0.1041,0
7970351,0.9998,-0.0049,0.0004,-0.0185,-0.0001,-0.0118,0.0878,0
7970517,0.9998,-0.0049,0.0004,-0.0185,-0.0188,0.0014,0.0888,0
7970684,0.9998,-0.0049,0.0004,-0.0185,-0.0059,-0.0138,0.093,0
7970851,0.9998,-0.0049,0.0004,-0.0185,0.003,0.007,0.0635,0
7971017,0.9998,-0.0049,0.0004,-0.0185,-0.0004,0.0039,0.0998,0
7971184,0.9998,-0.0049,0.0004,-0.0185,0.0016,0.0056,0.1002,0
7971351,0.9998,-0.0049,0.0004,-0.0185,0.0061,0.0144,0.1149,0
7971517,0.9998,-0.0049,0.0004,-0.0185,0.0035,0.003,0.0848,0
7971684,0.9998,-0.0049,0.0004,-0.0185,-0.0055,-0.0012,0.0957,0
7971851,0.9998,-0.0049,0.0004,-0.0185,-0.016,-0.0165,0.0898,0
7972017,0.9998,-0.0049,0.0004,-0.0185,-0.0171,-0.0065,0.0729,0
7972184,0.9998,-0.0049,0.0003,-0.0185,-0.0035,0.0097,0.0893,0
7972351,0.9998,-0.0049,0.0003,-0.0185,0.0014,0.016,0.1088,0
7972517,0.9998,-0.0048,0.0003,-0.0185,0.0199,0.0024,0.102,0
7972684,0.9998,-0.0048,0.0003,-0.0185,0.0093,-0.0045,0.1038,0
7972851,0.9998,-0.0048,0.0004,-0.0185,-0.0016,0.0006,0.0955,0
7973017,0.9998,-0.0048,0.0004,-0.0185,-0.0057,-0.0044,0.0787,0
7973184,0.9998,-0.0048,0.0004,-0.0185,-0.0208,0.0134,0.0947,0
7973351,0.9998,-0.0048,0.0004,-0.0185,-0.0016,-0.0052,0.0859,0
7973517,0.9998,-0.0048,0.0004,-0.0185,0.0214,0.0093,0.0812,0
7973684,0.9998,-0.0048,0.0004,-0.0185,0.0089,-0.0041,0.1146,0
7973851,0.9998,-0.0048,0.0004,-0.0185,0.0188,0.0065,0.131,0
7974017,0.9998,-0.0049,0.0003,-0.0185,0.0069,-0.0085,0.0733,0
7974184,0.9998,-0.0049,0.0003,-0.0185,-0.0216,-0.0033,0.089,0
7974351,0.9998,-0.0049,0.0003,-0.0185,-0.0028,-0.0114,0.0822,0
7974517,0.9998,-0.0049,0.0003,-0.0185,0.0188,0.0133,0.0916,0
7974684,0.9998,-0.0049,0.0003,-0.0185,0.0057,-0.0026,0.1116,0
7974851,0.9998,-0.0049,0.0003,-0.0185,0.0159,0.006,0.1091,0
7975017,0.9998,-0.0049,0.0003,-0.0185,0.0225,-0.0051,0.1136,0
7975184,0.9998,-0.0049,0.0003,-0.0185,0.0053,-0.0028,0.1006,0
7975351,0.9998,-0.0049,0.0003,-0.0185,-0.0003,0.0038,0.0863,0
7975517,0.9998,-0.0049,0.0003,-0.0185,-0.0161,-0.0003,0.0994,0
7975684,0.9998,-0.0049,0.0004,-0.0185,0.0001,0.0032,0.0726,0
7975851,0.9998,-0.0049,0.0003,-0.0185,0.0074,0.0219,0.1015,0
7976017,0.9998,-0.0049,0.0004,-0.0185,0.004,0.0093,0.1046,0
7976184,0.9998,-0.0049,0.0004,-0.0185,0.0014,0.0135,0.0886,0
7976351,0.9998,-0.0049,0.0004,-0.0185,-0.0012,-0.0005,0.078,0
7976517,0.9998,-0.0049,0.0004,-0.0185,-0.0053,0.004,0.0764,0
7976684,0.9998,-0.0049,0.0004,-0.0185,-0.0124,0.0028,0.0708,0
7976851,0.9998,-0.0049,0.0004,-0.0185,0.0015,0.0085,0.0934,0
7977017,0.9998,-0.0049,0.0004,-0.0185,0.0135,-0.009,0.1127,0
7977184,0.9998,-0.0049,0.0004,-0.0185,0.0147,-0.0071,0.1133,0
7977351,0.9998,-0.0049,0.0003,-0.0185,0.019,0.003,0.0849,0
7977517,0.9998,-0.0049,0.0004,-0.0185,0.0035,-0.0118,0.0915,0
7977684,0.9998,-0.0049,0.0003,-0.0185,-0.0061,-0.0051,0.0832,0
7977851,0.9998,-0.0049,0.0003,-0.0185,-0.002,0.0018,0.0873,0
7978017,0.9998,-0.0049,0.0003,-0.0185,-0.0193,-0.0098,0.0907,0
7978184,0.9998,-0.0049,0.0003,-0.0185,0.0023,0.0046,0.0738,0
7978351,0.9998,-0.0049,0.0003,-0.0185,0.0083,0.0082,0.1048,0
7978517,0.9998,-0.0049,0.0003,-0.0185,0.0227,0.0156,0.0834,0
7978684,0.9998,-0.0049,0.0003,-0.0185,-0.0051,0.006,0.0866,0
7978851,0.9998,-0.0049,0.0003,-0.0185,-0.0148,0.0053,0.0684,0
7979017,0.9998,-0.0049,0.0003,-0.0185,-0.0126,-0.0049,0.0915,0
7979184,0.9998,-0.0049,0.0003,-0.0185,0.001,-0.0111,0.1056,0
7979351,0.9998,-0.0049,0.0003,-0.0185,0.0102,-0.0078,0.0987,0
7979517,0.9998,-0.0049,0.0003,-0.0185,0.0232,0.0142,0.1387,0
7979684,0.9998,-0.0049,0.0004,-0.0185,0.0082,0.0147,0.0895,0
7979851,0.9998,-0.0049,0.0003,-0.0185,-0.0027,-0.002,0.1221,0
7980018,0.9998,-0.0049,0.0004,-0.0185,-0.0124,0.0101,0.0971,0
7980184,0.9998,-0.0049,0.0004,-0.0185,-0.016,0.0003,0.0664,0
7980351,0.9998,-0.0049,0.0004,-0.0185,-0.0184,-0.0151,0.1376,0
7980518,0.9998,-0.0049,0.0003,-0.0185,0.0084,0.0045,0.0946,0
7980684,0.9998,-0.0049,0.0004,-0.0185,0.0179,0.0198,0.1198,0
7980851,0.9998,-0.0049,0.0004,-0.0185,0.02,0.0005,0.0883,0
7981018,0.9998,-0.0049,0.0004,-0.0185,-0.0079,-0.0031,0.1052,0
7981184,0.9998,-0.0049,0.0004,-0.0185,-0.0163,-0.0097,0.0965,0
7981351,0.9998,-0.0049,0.0004,-0.0185,-0.0036,-0.0007,0.057,0
7981518,0.9998,-0.0049,0.0004,-0.0185,-0.0069,-0.0015,0.1069,0
7981684,0.9998,-0.0049,0.0003,-0.0185,0.0182,0.0053,0.0729,0
7981851,0.9998,-0.0049,0.0003,-0.0185,0.017,0.0209,0.128,0
7982018,0.9998,-0.0049,0.0004,-0.0185,0.0146,0.0108,0.1142,0
7982184,0.9998,-0.0049,0.0004,-0.0185,-0.0064,0.003,0.0664,0
7982351,0.9998,-0.0049,0.0004,-0.0185,-0.0018,-0.0028,0.0864,0
7982518,0.9998,-0.0049,0.0004,-0.0185,0.0007,-0.002,0.0954,0
7982684,0.9998,-0.0049,0.0004,-0.0185,-0.0003,0.0047,0.0844,0
7982851,0.9998,-0.0049,0.0004,-0.0185,0.0131,0.0124,0.0983,0
7983018,0.9998,-0.0049,0.0004,-0.0185,0.0176,0.0115,0.1143,0
7983184,0.9998,-0.0049,0.0004,-0.0185,0.0027,0.0146,0.0816,0
7983351,0.9998,-0.0049,0.0004,-0.0185,0.0059,0.0132,0.092,0
7983518,0.9998,-0.0049,0.0004,-0.0185,-0.0147,0.0122,0.1036,0
7983684,0.9998,-0.0049,0.0004,-0.0185,-0.0124,-0.0081,0.0898,0
7983851,0.9998,-0.0049,0.0004,-0.0185,0.0081,0.0047,0.0936,0
7984018,0.9998,-0.0049,0.0004,-0.0185,0.0125,0.008,0.1206,0
7984184,0.9998,-0.0049,0.0004,-0.0185,0.0136,0.0148,0.1044,0
7984351,0.9998,-0.0049,0.0004,-0.0185,0.0161,0.0138,0.0993,0
7984518,0.9998,-0.0049,0.0004,-0.0186,0.0056,0.0138,0.0978,0
7984684,0.9998,-0.0049,0.0004,-0.0186,-0.0087,0.005,0.0913,0
7984851,0.9998,-0.0049,0.0004,-0.0186,-0.0115,-0.0121,0.0894,0
7985018,0.9998,-0.0049,0.0004,-0.0186,-0.0024,-0.0025,0.0889,0
7985184,0.9998,-0.0049,0.0004,-0.0186,0.0081,0.0027,0.1094,0
7985351,0.9998,-0.0049,0.0004,-0.0186,0.0155,0.006,0.112,0
7985518,0.9998,-0.0049,0.0004,-0.0186,0.0077,0.0158,0.092,0
7985684,0.9998,-0.0049,0.0004,-0.0186,-0.0022,-0.0093,0.0827,0
7985851,0.9998,-0.0049,0.0004,-0.0186,-0.0162,-0.0034,0.1027,0
7986018,0.9998,-0.0049,0.0004,-0.0186,-0.0176,-0.0066,0.1057,0
7986184,0.9998,-0.0049,0.0004,-0.0186,0.0078,-0.0104,0.0829,0
7986351,0.9998,-0.0049,0.0003,-0.0186,0.021,0.0154,0.1025,0
7986518,0.9998,-0.0049,0.0003,-0.0186,0.0247,0.0224,0.1068,0
7986684,0.9998,-0.0049,0.0003,-0.0186,0.0123,0.0168,0.0777,0
7986851,0.9998,-0.0049,0.0003,-0.0186,-0.0089,0.0098,0.0953,0
7987018,0.9998,-0.0049,0.0003,-0.0186,-0.0098,0.0024,0.085,0
7987184,0.9998,-0.0049,0.0003,-0.0186,-0.018,-0.0103,0.0648,0
7987351,0.9998,-0.0049,0.0003,-0.0186,-0.0025,0.0002,0.1107,0
7987518,0.9998,-0.0049,0.0003,-0.0186,0.0131,0.0077,0.0958,0
7987684,0.9998,-0.0049,0.0003,-0.0186,0.0132,0.0163,0.1087,0
7987851,0.9998,-0.0049,0.0003,-0.0186,0.0136,0.0043,0.0953,0
7988018,0.9998,-0.0049,0.0003,-0.0186,-0.0022,-0.005,0.0678,0
7988184,0.9998,-0.0049,0.0003,-0.0186,-0.0085,-0.0008,0.0854,0
7988351,0.9998,-0.0049,0.0003,-0.0186,0.0076,0.0041,0.1003,0
7988518,0.9998,-0.0049,0.0003,-0.0186,0.003,0.0012,0.0864,0
7988684,0.9998,-0.0049,0.0003,-0.0186,0.0147,0.0166,0.1065,0
7988851,0.9998,-0.0049,0.0003,-0.0186,-0.0008,0.0019,0.1141,0
7989018,0.9998,-0.0049,0.0003,-0.0186,0.0153,0.0122,0.1044,0
7989184,0.9998,-0.0049,0.0003,-0.0186,-0.0079,0.0059,0.1136,0
7989351,0.9998,-0.0049,0.0003,-0.0186,-0.0164,-0.001,0.0865,0
7989518,0.9998,-0.0049,0.0003,-0.0186,-0.012,-0.0063,0.0907,0
7989684,0.9998,-0.0049,0.0003,-0.0186,0.0165,0.0081,0.1063,0
7989851,0.9998,-0.0049,0.0003,-0.0186,0.007,0.0133,0.1118,0
7990018,0.9998,-0.0049,0.0003,-0.0186,0.0177,0.0069,0.1059,0
7990184,0.9998,-0.0049,0.0003,-0.0186,0.0123,0.004,0.0651,0
7990351,0.9998,-0.0049,0.0003,-0.0186,-0.0025,0.0052,0.0574,0
7990518,0.9998,-0.0049,0.0003,-0.0186,-0.0029,-0.019,0.0748,0
7990684,0.9998,-0.0049,0.0003,-0.0186,-0.0141,-0.0047,0.0795,0
7990851,0.9998,-0.0049,0.0003,-0.0186,0.0193,0.009,0.079,0
7991018,0.9998,-0.0049,0.0003,-0.0186,0.0203,0.0114,0.1066,0
7991184,0.9998,-0.0049,0.0003,-0.0186,0.0135,0.0035,0.0867,0
7991351,0.9998,-0.0049,0.0003,-0.0187,0.006,0.0074,0.0782,0
7991518,0.9998,-0.0049,0.0003,-0.0186,0.0089,-0.0079,0.0848,0
7991684,0.9998,-0.0049,0.0003,-0.0186,-0.0088,0.0014,0.0874,0
7991851,0.9998,-0.0049,0.0003,-0.0186,-0.0083,0.0096,0.0989,0
7992018,0.9998,-0.0049,0.0003,-0.0186,0.0035,0.0109,0.1052,0
7992184,0.9998,-0.0049,0.0003,-0.0186,0.0149,0.0101,0.0967,0
7992351,0.9998,-0.0049,0.0003,-0.0186,0.0186,0.0124,0.103,0
7992518,0.9998,-0.0049,0.0003,-0.0186,0.0002,0.0046,0.0937,0
7992684,0.9998,-0.0049,0.0003,-0.0187,-0.0041,-0.0069,0.0799,0
7992851,0.9998,-0.0049,0.0003,-0.0187,-0.0212,-0.0062,0.0889,0
7993018,0.9998,-0.0049,0.0003,-0.0187,-0.0162,-0.0022,0.0787,0
7993184,0.9998,-0.0049,0.0003,-0.0187,0.0136,0.0075,0.0948,0
7993351,0.9998,-0.0049,0.0003,-0.0187,0.0059,0.0217,0.0951,0
7993518,0.9998,-0.0049,0.0003,-0.0187,0.0098,-0.0055,0.1054,0
7993684,0.9998,-0.0049,0.0003,-0.0187,0.0073,-0.0038,0.1,0
7993851,0.9998,-0.0049,0.0003,-0.0187,-0.001,-0.0052,0.097,0
7994018,0.9998,-0.0049,0.0003,-0.0187,-0.0059,-0.0082,0.0845,0
7994184,0.9998,-0.0049,0.0003,-0.0187,-0.0045,0.0041,0.0836,0
7994351,0.9998,-0.0049,0.0003,-0.0187,-0.0111,0.0026,0.0882,0
7994518,0.9998,-0.0049,0.0003,-0.0187,0.0171,0.0077,0.098,0
7994684,0.9998,-0.0049,0.0003,-0.0187,0.007,0.0076,0.1031,0
7994851,0.9998,-0.0049,0.0003,-0.0187,0.0143,0.002,0.0947,0
7995018,0.9998,-0.0049,0.0003,-0.0187,-0.0132,-0.0141,0.0914,0
7995184,0.9998,-0.0049,0.0003,-0.0187,-0.0098,-0.0111,0.0593,0
7995351,0.9998,-0.0049,0.0003,-0.0187,-0.0051,-0.0118,0.071,0
7995518,0.9998,-0.0049,0.0003,-0.0187,0.0071,0.0104,0.0956,0
7995684,0.9998,-0.0049,0.0003,-0.0187,0.0147,0.007,0.0919,0
7995851,0.9998,-0.0049,0.0003,-0.0187,0.0137,0.0151,0.1203,0
7996018,0.9998,-0.0049,0.0003,-0.0187,0.0082,-0.0016,0.1271,0
7996184,0.9998,-0.0049,0.0003,-0.0187,-0.0039,-0.002,0.0965,0
7996351,0.9998,-0.0049,0.0003,-0.0187,-0.0274,-0.0181,0.0766,0
7996518,0.9998,-0.0049,0.0003,-0.0187,-0.0178,-0.0117,0.0875,0
7996685,0.9998,-0.0049,0.0003,-0.0187,-0.0001,-0.0139,0.0969,0
7996851,0.9998,-0.0049,0.0003,-0.0187,0.0209,0.0056,0.0863,0
7997018,0.9998,-0.0049,0.0003,-0.0187,0.0215,0.012,0.1074,0
7997185,0.9998,-0.0049,0.0003,-0.0187,0.0095,0.008,0.1095,0
7997351,0.9998,-0.0049,0.0003,-0.0187,0.0043,-0.003,0.0862,0
7997518,0.9998,-0.0049,0.0003,-0.0187,-0.0088,-0.0119,0.084,0
7997685,0.9998,-0.0049,0.0003,-0.0187,-0.0078,-0.0201,0.0986,0
7997851,0.9998,-0.0049,0.0003,-0.0187,-0.002,-0.0009,0.0768,0
7998018,0.9998,-0.0049,0.0003,-0.0187,0.0055,0.0126,0.087,0
7998185,0.9998,-0.0049,0.0003,-0.0187,0.0132,0.0203,0.1046,0
7998351,0.9998,-0.0049,0.0003,-0.0187,0.013,0.003,0.1118,0
7998518,0.9998,-0.0049,0.0003,-0.0187,-0.0077,-0.0065,0.105,0
7998685,0.9998,-0.0049,0.0003,-0.0187,-0.0105,-0.0029,0.1081,0
7998851,0.9998,-0.0049,0.0003,-0.0187,-0.0016,-0.0071,0.0801,0
7999018,0.9998,-0.0049,0.0003,-0.0187,0.0125,-0.0038,0.0844,0
7999185,0.9998,-0.0049,0.0003,-0.0188,0.0049,0.0085,0.1013,0
7999351,0.9998,-0.0049,0.0003,-0.0187,0.0002,0.0119,0.0913,0
7999518,0.9998,-0.0049,0.0003,-0.0188,-0.0064,0.0014,0.1019,0
7999685,0.9998,-0.0049,0.0003,-0.0188,0.0007,0.0017,0.1134,0
7999851,0.9998,-0.0049,0.0003,-0.0188,-0.0039,-0.0085,0.0846,0
8000018,0.9998,-0.0049,0.0003,-0.0188,-0.0018,-0.0081,0.0955,0
8000185,0.9998,-0.0049,0.0003,-0.0188,0.0176,0.0041,0.0809,0
8000351,0.9998,-0.0049,0.0003,-0.0188,0.0018,0.0167,0.1141,0
8000518,0.9998,-0.0049,0.0003,-0.0187,0.006,-0.0042,0.1257,0
8000685,0.9998,-0.0049,0.0003,-0.0187,-0.0054,-0.0001,0.1273,0
8000851,0.9998,-0.0049,0.0003,-0.0187,-0.0045,0,0.0962,0
8001018,0.9998,-0.0049,0.0003,-0.0187,-0.0237,0.0072,0.0961,0
8001185,0.9998,-0.0049,0.0003,-0.0187,-0.0059,0.0065,0.1105,0
8001351,0.9998,-0.0049,0.0003,-0.0187,0.0077,0.0127,0.0872,0
8001518,0.9998,-0.0049,0.0003,-0.0187,0.0044,0.0188,0.1155,0
8001685,0.9998,-0.0049,0.0003,-0.0187,-0.0069,0.0115,0.1194,0
8001851,0.9998,-0.0049,0.0003,-0.0187,0.0093,-0.0089,0.0982,0
8002018,0.9998,-0.0049,0.0003,-0.0187,0.0094,-0.004,0.0909,0
8002185,0.9998,-0.0049,0.0003,-0.0187,0.0049,-0.0079,0.0998,0
8002351,0.9998,-0.0049,0.0003,-0.0187,0.0009,-0.0028,0.0945,0
8002518,0.9998,-0.0049,0.0003,-0.0187,0.0123,-0.0051,0.0987,0
8002685,0.9998,-0.0049,0.0003,-0.0187,0.0011,0.0007,0.1235,0
8002851,0.9998,-0.0049,0.0003,-0.0187,-0.0081,0.0127,0.1082,0
8003018,0.9998,-0.0049,0.0003,-0.0187,-0.0018,-0.0001,0.0871,0
8003185,0.9998,-0.0049,0.0003,-0.0187,-0.0106,0.0114,0.0889,0
8003351,0.9998,-0.0049,0.0003,-0.0187,-0.0055,-0.0076,0.0886,0
8003518,0.9998,-0.0049,0.0003,-0.0187,-0.0085,-0.0056,0.0769,0
8003685,0.9998,-0.0049,0.0003,-0.0187,-0.008,0.0163,0.1023,0
8003851,0.9998,-0.0049,0.0003,-0.0187,0.0114,0.0028,0.0917,0
8004018,0.9998,-0.0049,0.0002,-0.0187,0.0073,0.0027,0.0787,0
8004185,0.9998,-0.0049,0.0002,-0.0187,-0.0012,-0.0021,0.0859,0
8004351,0.9998,-0.0049,0.0002,-0.0187,-0.009,-0.0037,0.0914,0
8004518,0.9998,-0.0049,0.0002,-0.0187,-0.0085,-0.0087,0.0818,0
8004685,0.9998,-0.0049,0.0002,-0.0187,-0.0015,-0.0027,0.1148,0
8004851,0.9998,-0.0049,0.0002,-0.0187,0.0076,-0.0013,0.1007,0
8005018,0.9998,-0.0049,0.0002,-0.0187,0.0162,0.0061,0.125,0
8005185,0.9998,-0.0049,0.0002,-0.0187,0.0199,0.0092,0.1165,0
8005351,0.9998,-0.0049,0.0003,-0.0187,-0.0041,0.005,0.0783,0
8005518,0.9998,-0.0049,0.0003,-0.0187,0.0033,-0.0122,0.0743,0
8005685,0.9998,-0.0049,0.0002,-0.0187,-0.003,-0.0075,0.0781,0
8005851,0.9998,-0.0049,0.0002,-0.0187,-0.0069,0.0041,0.0981,0
8006018,0.9998,-0.0049,0.0002,-0.0187,-0.0067,-0.0058,0.1139,0
8006185,0.9998,-0.0049,0.0002,-0.0187,-0.0056,0.001,0.1022,0
8006351,0.9998,-0.0049,0.0002,-0.0187,0.0013,-0.0008,0.1132,0
8006518,0.9998,-0.0049,0.0002,-0.0187,-0.0081,0.0085,0.0816,0
8006685,0.9998,-0.0049,0.0002,-0.0187,-0.0028,-0.0096,0.0817,0
8006851,0.9998,-0.0049,0.0002,-0.0187,-0.002,-0.0055,0.113,0
8007018,0.9998,-0.0049,0.0002,-0.0187,-0.0032,0.0027,0.0819,0
8007185,0.9998,-0.0049,0.0002,-0.0187,0.0029,0.0116,0.0924,0
8007351,0.9998,-0.0049,0.0002,-0.0187,0.0057,0.0077,0.1077,0
8007518,0.9998,-0.0049,0.0002,-0.0187,0.0171,0.0053,0.0886,0
8007685,0.9998,-0.0049,0.0002,-0.0187,-0.0025,0.0005,0.0995,0
8007851,0.9998,-0.0049,0.0002,-0.0187,-0.0065,0.0135,0.0936,0
8008018,0.9998,-0.0048,0.0002,-0.0187,-0.0044,-0.0073,0.1104,0
8008185,0.9998,-0.0048,0.0002,-0.0187,-0.0045,0.0107,0.0856,0
8008351,0.9998,-0.0048,0.0002,-0.0187,0.0001,-0.0012,0.0861,0
8008518,0.9998,-0.0048,0.0002,-0.0187,0.0188,0.0193,0.1077,0
8008685,0.9998,-0.0048,0.0002,-0.0186,0.0076,0.0093,0.0777,0
8008851,0.9998,-0.0048,0.0002,-0.0186,-0.0124,-0.0004,0.0796,0
8009018,0.9998,-0.0048,0.0002,-0.0186,-0.0208,0.0003,0.0624,0
8009185,0.9998,-0.0048,0.0002,-0.0186,-0.0167,0.0053,0.0925,0
8009351,0.9998,-0.0048,0.0002,-0.0186,0.0018,-0.0061,0.109,0
8009518,0.9998,-0.0048,0.0002,-0.0186,0.0101,0.0032,0.1092,0
8009685,0.9998,-0.0048,0.0002,-0.0186,0.0063,0.0067,0.1115,0
8009851,0.9998,-0.0048,0.0002,-0.0186,-0.0069,0.011,0.0947,0
8010018,0.9998,-0.0048,0.0002,-0.0186,-0.0093,-0.0052,0.0904,0
8010185,0.9998,-0.0048,0.0002,-0.0186,-0.0163,-0.0086,0.0795,0
8010351,0.9998,-0.0048,0.0002,-0.0187,-0.0079,0.008,0.0881,0
8010518,0.9998,-0.0048,0.0002,-0.0187,0.0147,0.0027,0.1042,0
8010685,0.9998,-0.0048,0.0002,-0.0187,0.0237,0.0066,0.1079,0
8010851,0.9998,-0.0048,0.0002,-0.0187,-0.0122,0.0127,0.0813,0
8011018,0.9998,-0.0048,0.0002,-0.0187,0.0038,0.0064,0.1032,0
8011185,0.9998,-0.0048,0.0002,-0.0187,-0.0047,-0.0143,0.0951,0
8011351,0.9998,-0.0048,0.0002,-0.0187,-0.014,-0.0035,0.1016,0
8011518,0.9998,-0.0048,0.0002,-0.0187,0.011,-0.0104,0.0963,0
8011685,0.9998,-0.0048,0.0002,-0.0187,-0.003,-0.0047,0.1032,0
8011851,0.9998,-0.0048,0.0002,-0.0187,0.0145,-0.0057,0.1329,0
8012018,0.9998,-0.0048,0.0002,-0.0187,0.0123,0.0115,0.1005,0
8012185,0.9998,-0.0048,0.0002,-0.0187,-0.0003,0.0157,0.0881,0
8012351,0.9998,-0.0048,0.0002,-0.0187,-0.0157,-0.0061,0.0888,0
8012518,0.9998,-0.0048,0.0002,-0.0187,-0.016,0.0059,0.0974,0
8012685,0.9998,-0.0048,0.0002,-0.0187,-0.0052,-0.0052,0.109,0
8012851,0.9998,-0.0048,0.0002,-0.0187,0.0036,0.0007,0.1092,0
8013018,0.9998,-0.0048,0.0002,-0.0187,0.0072,0.007,0.0866,0
8013185,0.9998,-0.0048,0.0002,-0.0187,0.0191,0.0026,0.0966,0
8013352,0.9998,-0.0048,0.0002,-0.0187,-0.0099,-0.0084,0.0848,0
8013518,0.9998,-0.0048,0.0002,-0.0187,-0.0158,-0.0062,0.0921,0
8013685,0.9998,-0.0048,0.0002,-0.0187,-0.0117,-0.0047,0.0926,0
8013852,0.9998,-0.0048,0.0002,-0.0187,-0.0072,-0.0008,0.0925,0
8014018,0.9998,-0.0048,0.0003,-0.0187,0.0091,-0.0013,0.0881,0
8014185,0.9998,-0.0048,0.0003,-0.0187,0.0202,0.0144,0.116,0
8014352,0.9998,-0.0048,0.0003,-0.0187,0.0076,0.0149,0.1164,0
8014518,0.9998,-0.0048,0.0003,-0.0187,-0.0151,-0.0048,0.1099,0
8014685,0.9998,-0.0048,0.0003,-0.0187,-0.0073,-0.0047,0.064,0
8014852,0.9998,-0.0048,0.0003,-0.0187,-0.0224,-0.0142,0.0704,0
8015018,0.9998,-0.0048,0.0003,-0.0187,-0.0107,0.0016,0.0808,0
8015185,0.9998,-0.0048,0.0003,-0.0187,0.0132,-0.0076,0.1013,0
8015352,0.9998,-0.0048,0.0003,-0.0188,-0.0051,0.014,0.0992,0
8015518,0.9998,-0.0048,0.0003,-0.0188,0.0067,-0.0002,0.0999,0
8015685,0.9998,-0.0048,0.0003,-0.0188,-0.0111,-0.0115,0.1078,0
8015852,0.9998,-0.0048,0.0003,-0.0188,-0.013,-0.0079,0.0913,0
8016018,0.9998,-0.0048,0.0003,-0.0188,0.0024,0.001,0.1146,0
8016185,0.9998,-0.0048,0.0003,-0.0188,0.0024,-0.0016,0.0799,0
8016352,0.9998,-0.0048,0.0003,-0.0188,0.0042,0.0044,0.0807,0
8016518,0.9998,-0.0048,0.0003,-0.0188,0.0086,0.0149,0.1144,0
8016685,0.9998,-0.0048,0.0003,-0.0188,0.009,0.0108,0.0955,0
8016852,0.9998,-0.0048,0.0003,-0.0188,0.0038,0.0177,0.0832,0
8017018,0.9998,-0.0048,0.0003,-0.0188,-0.0209,-0.0127,0.0854,0
8017185,0.9998,-0.0048,0.0003,-0.0188,0.0025,-0.0074,0.0946,0
8017352,0.9998,-0.0048,0.0003,-0.0188,0.0031,0.009,0.0754,0
8017518,0.9998,-0.0048,0.0003,-0.0188,0.0019,0.0024,0.0932,0
8017685,0.9998,-0.0048,0.0003,-0.0188,0.0187,-0.0051,0.0937,0
8017852,0.9998,-0.0048,0.0003,-0.0188,-0.0004,-0.0138,0.0971,0
8018018,0.9998,-0.0048,0.0003,-0.0188,0.0112,-0.0054,0.1213,0
8018185,0.9998,-0.0048,0.0003,-0.0188,-0.0069,-0.0188,0.085,0
8018352,0.9998,-0.0048,0.0003,-0.0188,-0.0061,-0.0109,0.1025,0
8018518,0.9998,-0.0048,0.0003,-0.0188,0.017,-0.0005,0.0788,0
8018685,0.9998,-0.0048,0.0003,-0.0188,0.0051,0.0048,0.083,0
8018852,0.9998,-0.0048,0.0003,-0.0188,0.0154,0.0016,0.1037,0
8019018,0.9998,-0.0048,0.0003,-0.0188,0.0119,0.0103,0.0986,0
8019185,0.9998,-0.0048,0.0003,-0.0188,0.0005,0.0066,0.0957,0
8019352,0.9998,-0.0048,0.0003,-0.0189,-0.0126,-0.0126,0.0843,0
8019518,0.9998,-0.0048,0.0003,-0.0189,-0.0058,-0.0074,0.0829,0
8019685,0.9998,-0.0048,0.0003,-0.0189,-0.0033,-0.0037,0.0976,0
8019852,0.9998,-0.0048,0.0003,-0.0189,0.0157,-0.0139,0.0974,0
8020018,0.9998,-0.0048,0.0003,-0.0189,0.0207,0.0088,0.0997,0
8020185,0.9998,-0.0048,0.0003,-0.0189,0.01,0.0116,0.0687,0
8020352,0.9998,-0.0048,0.0003,-0.0189,-0.0075,0.0069,0.1211,0
8020518,0.9998,-0.0048,0.0003,-0.0189,-0.0098,-0.01,0.0689,0
8020685,0.9998,-0.0048,0.0003,-0.0189,-0.0101,-0.0047,0.0836,0
8020852,0.9998,-0.0048,0.0003,-0.0189,-0.0007,0.0062,0.1008,0
8021018,0.9998,-0.0048,0.0003,-0.0189,0.0073,0.0038,0.0969,0
8021185,0.9998,-0.0048,0.0003,-0.0189,0.0081,0.0081,0.1108,0
8021352,0.9998,-0.0048,0.0003,-0.0189,0.0201,0.0021,0.0962,0
8021518,0.9998,-0.0048,0.0003,-0.0189,-0.0042,-0.0078,0.0797,0
8021685,0.9998,-0.0048,0.0003,-0.0189,0.0028,-0.0112,0.0835,0
8021852,0.9976,-0.0048,-0.0001,0.0688,-0.0132,-0.0101,0.0912,0
8022018,1,-0.0048,0.0002,0,-0.0004,0.0047,0.0834,0
8022185,1,-0.0048,0.0002,0,0.0113,0.0078,0.0764,0
8022352,1,-0.0048,0.0002,0,0.018,-0.0107,0.1073,0
8022518,1,-0.0048,0.0002,0,-0.0009,0.0092,0.0929,0
8022685,1,-0.0048,0.0002,0,-0.0149,-0.0012,0.101,0
8022852,1,-0.0048,0.0002,0,-0.0102,-0.0097,0.0639,0
8023018,1,-0.0048,0.0002,0,-0.0113,-0.0134,0.0873,0
8023185,1,-0.0048,0.0002,0,0.0226,-0.007,0.081,0
8023352,1,-0.0048,0.0002,0,0.0125,0.0071,0.0941,0
8023518,1,-0.0048,0.0002,0,0.0219,0.007,0.1149,0
8023685,1,-0.0047,0.0002,0,0.0093,0.0142,0.108,0
8023852,1,-0.0047,0.0002,0,-0.009,0.0018,0.0839,0
8024018,1,-0.0048,0.0002,0,-0.0079,-0.016,0.0918,0
8024185,1,-0.0048,0.0002,0,-0.0151,0.0013,0.0834,0
8024352,1,-0.0048,0.0002,0,-0.0162,-0.0009,0.1039,0
8024518,1,-0.0048,0.0002,-0.0001,0.0065,0.0106,0.1074,0
8024685,1,-0.0048,0.0002,-0.0001,0.0188,0.0082,0.1169,0
8024852,1,-0.0048,0.0002,-0.0001,0.0093,-0.0114,0.115,0
8025018,1,-0.0048,0.0003,-0.0001,0.0003,-0.0042,0.095,0
8025185,1,-0.0047,0.0003,-0.0001,-0.0183,-0.0036,0.079,0
8025352,1,-0.0047,0.0002,-0.0001,-0.0081,-0.0134,0.0833,0
8025518,1,-0.0047,0.0002,-0.0001,0.0081,-0.0051,0.0794,0
8025685,1,-0.0047,0.0002,-0.0001,0.0308,0.0045,0.1021,0
8025852,1,-0.0047,0.0003,-0.0001,0.0185,0.0016,0.0934,0
8026018,1,-0.0047,0.0002,-0.0001,0.0021,0.0059,0.1006,0
8026185,1,-0.0047,0.0003,-0.0001,0.0145,0.0037,0.0899,0
8026352,1,-0.0047,0.0003,-0.0001,-0.0084,-0.0098,0.0905,0
8026518,1,-0.0047,0.0003,-0.0001,-0.0128,-0.0094,0.0772,0
8026685,1,-0.0047,0.0003,-0.0001,-0.0015,-0.0075,0.0795,0
8026852,1,-0.0047,0.0003,-0.0001,0.013,-0.0026,0.0779,0
8027018,1,-0.0047,0.0003,-0.0001,0.0054,-0.0047,0.1201,0
8027185,1,-0.0047,0.0003,-0.0001,0.0014,0.0096,0.0915,0
8027352,1,-0.0047,0.0003,-0.0001,0.0001,-0.0049,0.1075,0
8027518,1,-0.0047,0.0003,-0.0001,-0.0072,-0.0056,0.0981,0
8027685,1,-0.0047,0.0003,-0.0001,-0.0009,-0.0128,0.0674,0
8027852,1,-0.0047,0.0003,-0.0001,-0.0144,-0.0163,0.0937,0
8028018,1,-0.0047,0.0003,-0.0001,0.0074,0.0068,0.0963,0
8028185,1,-0.0047,0.0003,-0.0001,0.0134,0.0167,0.1052,0
8028352,1,-0.0047,0.0003,-0.0001,0.0035,0.0153,0.0807,0
8028518,1,-0.0047,0.0003,-0.0001,-0.0011,-0.0069,0.0972,0
8028685,1,-0.0047,0.0003,-0.0001,0.0167,-0.0116,0.095,0
8028852,1,-0.0047,0.0003,-0.0001,-0.0066,-0.0067,0.1086,0
8029018,1,-0.0047,0.0003,-0.0001,-0.0011,-0.0189,0.0864,0
8029185,1,-0.0047,0.0002,-0.0001,0.0072,0.0095,0.0988,0
8029352,1,-0.0047,0.0003,-0.0001,0.0227,0.007,0.1112,0
8029518,1,-0.0047,0.0002,-0.0001,0.0043,0.0007,0.1108,0
8029685,1,-0.0047,0.0003,-0.0001,-0.0002,-0.0127,0.0751,0
8029852,1,-0.0047,0.0003,-0.0001,-0.006,-0.0255,0.1,0
8030019,1,-0.0047,0.0003,-0.0001,0.0042,-0.0091,0.09,0
8030185,1,-0.0047,0.0003,-0.0001,-0.0048,-0.0152,0.0939,0
8030352,1,-0.0047,0.0003,-0.0001,0.0134,0.0058,0.116,0
8030519,1,-0.0047,0.0003,-0.0001,0.0035,0.0121,0.094,0
8030685,1,-0.0047,0.0003,-0.0001,-0.0029,0.0123,0.0894,0
8030852,1,-0.0047,0.0003,-0.0001,0.0044,0.0028,0.0906,0
8031019,1,-0.0047,0.0003,-0.0001,0.0074,-0.0088,0.0897,0
8031185,1,-0.0047,0.0003,-0.0001,0.0049,-0.0183,0.0768,0
8031352,1,-0.0047,0.0003,-0.0001,-0.0088,-0.0153,0.1287,0
8031519,1,-0.0047,0.0003,-0.0001,0.0197,-0.0087,0.1036,0
8031685,1,-0.0047,0.0003,-0.0001,0.0158,-0.0071,0.0879,0
8031852,1,-0.0047,0.0003,-0.0002,0.0061,0.0096,0.1138,0
8032019,1,-0.0047,0.0003,-0.0002,-0.0108,-0.0033,0.0858,0
8032185,1,-0.0047,0.0003,-0.0002,-0.0132,-0.0135,0.0903,0
8032352,1,-0.0047,0.0003,-0.0002,-0.0232,0.0012,0.1193,0
8032519,1,-0.0047,0.0003,-0.0001,-0.0117,0.0001,0.0788,0
8032685,1,-0.0047,0.0003,-0.0001,0.0019,0.0123,0.1019,0
8032852,1,-0.0047,0.0003,-0.0001,0.0167,-0.0001,0.1186,0
8033019,1,-0.0047,0.0003,-0.0001,0.0174,-0.0158,0.1246,0
8033185,1,-0.0047,0.0003,-0.0001,0.0117,-0.0116,0.0932,0
8033352,1,-0.0047,0.0003,-0.0001,-0.0082,-0.0106,0.0829,0
8033519,1,-0.0047,0.0003,-0.0001,-0.023,0.0019,0.1196,0
8033685,1,-0.0047,0.0003,-0.0001,0.0029,0.0087,0.0954,0
8033852,1,-0.0047,0.0003,-0.0001,0.022,0.0078,0.1227,0
8034019,1,-0.0048,0.0002,0,0.0336,0.0152,0.1483,0
8034185,1,-0.0048,0.0002,0,0.0186,-0.0251,0.0706,0
8034352,1,-0.0048,0.0003,0,-0.0039,-0.0343,0.1193,0
8034519,1,-0.0048,0.0003,0,0.0021,-0.0162,0.098,0
8034685,1,-0.0048,0.0003,0,-0.0044,0.0164,0.0439,0
8034852,1,-0.0048,0.0003,0,-0.0136,0.0116,0.1059,0
8035019,1,-0.0048,0.0003,0,0.0194,-0.0303,0.0561,0
8035185,1,-0.0048,0.0003,0,0.0038,-0.0011,0.0827,0
8035352,1,-0.0048,0.0003,0,-0.0204,0.0038,0.1475,0
8035519,1,-0.0048,0.0003,0,-0.0117,-0.0084,0.0431,0
8035685,1,-0.0048,0.0003,0,-0.0233,0.0023,0.0936,0
8035852,1,-0.0048,0.0003,0,0.0033,0.0151,0.1283,0
8036019,1,-0.0048,0.0003,-0.0001,0.0178,-0.0059,0.0704,0
8036185,1,-0.0048,0.0003,-0.0001,0.014,-0.0175,0.1191,0
8036352,1,-0.0048,0.0003,-0.0001,0.0069,0.0091,0.0949,0
8036519,1,-0.0048,0.0003,-0.0001,-0.0006,0.0113,0.0766,0
8036685,1,-0.0048,0.0003,-0.0001,-0.0015,0.0046,0.1124,0
8036852,1,-0.0048,0.0003,-0.0001,-0.0006,0.0004,0.0645,0
8037019,1,-0.0048,0.0003,-0.0001,0.0085,-0.0134,0.1049,0
8037185,1,-0.0048,0.0003,-0.0001,0.0191,-0.0052,0.099,0
8037352,1,-0.0048,0.0003,-0.0001,0.0179,0.0066,0.0743,0
8037519,1,-0.0048,0.0003,-0.0001,-0.0063,0.0142,0.1148,0
8037685,1,-0.0048,0.0003,-0.0001,-0.0038,-0.0001,0.0961,0
8037852,1,-0.0048,0.0004,-0.0001,-0.0022,0.0011,0.0638,0
8038019,1,-0.0048,0.0003,-0.0001,-0.0122,-0.0011,0.0909,0
8038185,1,-0.0048,0.0004,-0.0001,-0.0001,-0.0071,0.0935,0
8038352,1,-0.0048,0.0003,-0.0001,0.0075,-0.0238,0.0849,0
8038519,1,-0.0048,0.0004,-0.0001,0.0203,0.0122,0.1269,0
8038685,1,-0.0048,0.0003,-0.0001,-0.0006,0.0095,0.1002,0
8038852,1,-0.0048,0.0003,-0.0001,-0.0201,-0.0111,0.0884,0
8039019,1,-0.0048,0.0003,-0.0001,0.0004,-0.0024,0.1096,0
8039185,1,-0.0048,0.0003,-0.0001,-0.009,0.0019,0.1004,0
8039352,1,-0.0048,0.0003,-0.0001,0.0069,-0.0174,0.1084,0
8039519,1,-0.0048,0.0003,-0.0001,0.0137,0.0084,0.1068,0
8039685,1,-0.0048,0.0003,-0.0001,0.0075,-0.0025,0.074,0
8039852,1,-0.0048,0.0003,-0.0001,0.0056,0.0091,0.0899,0
8040019,1,-0.0048,0.0003,-0.0001,0.0057,-0.0077,0.0934,0
8040185,1,-0.0048,0.0003,-0.0001,-0.0097,-0.0006,0.0939,0
8040352,1,-0.0048,0.0003,-0.0001,-0.0051,-0.0128,0.1047,0
8040519,1,-0.0048,0.0003,-0.0001,0.0025,-0.0118,0.0749,0
8040685,1,-0.0048,0.0004,-0.0001,0.0071,0.0044,0.1052,0
8040852,1,-0.0048,0.0004,-0.0001,-0.001,0.0165,0.1131,0
8041019,1,-0.0048,0.0004,-0.0001,0.0052,0.0032,0.0742,0
8041185,1,-0.0048,0.0004,-0.0001,-0.0042,-0.0013,0.0842,0
8041352,1,-0.0048,0.0004,-0.0001,-0.0233,-0.0179,0.0804,0
8041519,1,-0.0048,0.0004,-0.0001,0.0005,-0.0151,0.0758,0
8041685,1,-0.0048,0.0004,-0.0001,0.0041,-0.0011,0.0822,0
8041852,1,-0.0048,0.0003,-0.0001,0.0169,0.0161,0.1038,0
8042019,1,-0.0048,0.0003,-0.0001,-0.0069,0.0065,0.0988,0
8042185,1,-0.0048,0.0004,-0.0001,-0.012,-0.0127,0.1195,0
8042352,1,-0.0048,0.0004,-0.0001,0.0054,-0.0165,0.0953,0
8042519,1,-0.0048,0.0004,-0.0001,0.0087,-0.0051,0.1198,0
8042685,1,-0.0048,0.0004,-0.0001,0.0068,-0.023,0.1089,0
8042852,1,-0.0048,0.0004,-0.0001,0.0024,0.0134,0.0869,0
8043019,1,-0.0048,0.0004,-0.0001,0.0105,0.0166,0.0876,0
8043185,1,-0.0048,0.0004,-0.0001,-0.002,0.003,0.0884,0
8043352,1,-0.0048,0.0004,-0.0001,0.0062,-0.0041,0.0998,0
8043519,1,-0.0048,0.0004,-0.0001,-0.0007,-0.0137,0.0951,0
8043685,1,-0.0048,0.0004,-0.0001,-0.0049,-0.0064,0.0915,0
8043852,1,-0.0048,0.0004,-0.0001,-0.0044,0.0018,0.0855,0
8044019,1,-0.0048,0.0004,-0.0001,-0.0101,0.0035,0.0833,0
8044185,1,-0.0048,0.0004,-0.0001,0.0062,0.0057,0.1118,0
8044352,1,-0.0048,0.0004,-0.0001,0.0029,0.0043,0.1025,0
8044519,1,-0.0048,0.0004,-0.0001,0.0121,0.0016,0.1049,0
8044685,1,-0.0048,0.0004,-0.0001,0.0042,-0.0016,0.0921,0
8044852,1,-0.0048,0.0004,-0.0001,-0.0045,0.0004,0.1046,0
8045019,1,-0.0048,0.0004,-0.0001,-0.0064,0.0123,0.1078,0
8045185,1,-0.0048,0.0004,-0.0001,0.0028,0.0064,0.1062,0
8045352,1,-0.0048,0.0004,-0.0001,0.0044,0.011,0.095,0
8045519,1,-0.0048,0.0004,-0.0001,0.0068,-0.0031,0.0882,0
8045685,1,-0.0048,0.0004,-0.0001,0.0022,-0.0048,0.0844,0
8045852,1,-0.0048,0.0004,-0.0001,-0.0065,0.0008,0.0887,0
8046019,1,-0.0048,0.0004,-0.0001,-0.0115,0.0001,0.0923,0
8046185,1,-0.0048,0.0004,-0.0001,-0.0015,0.0079,0.1105,0
8046352,1,-0.0048,0.0004,-0.0001,0.0027,0.0002,0.0997,0
8046519,1,-0.0048,0.0004,-0.0001,0.0001,-0.0021,0.0757,0
8046686,1,-0.0048,0.0004,-0.0001,-0.0026,-0.0075,0.1177,0
8046852,1,-0.0048,0.0004,-0.0001,0.0075,-0.0111,0.1043,0
8047019,1,-0.0048,0.0004,-0.0001,-0.0075,0.0059,0.082,0
8047186,1,-0.0048,0.0004,-0.0001,0.0002,-0.0007,0.0836,0
8047352,1,-0.0048,0.0004,-0.0001,-0.0015,0.0017,0.085,0
8047519,1,-0.0048,0.0004,-0.0001,0.003,0.0048,0.1013,0
8047686,1,-0.0048,0.0004,-0.0001,0.0154,0.0006,0.1051,0
8047852,1,-0.0048,0.0004,-0.0001,0.0222,-0.0031,0.1128,0
8048019,1,-0.0048,0.0004,-0.0001,0.0029,0.0016,0.0921,0
8048186,1,-0.0048,0.0004,-0.0001,0.0202,-0.0032,0.0974,0
8048352,1,-0.0048,0.0004,-0.0001,0.0089,0.0014,0.0832,0
8048519,1,-0.0048,0.0004,-0.0001,0.0029,-0.0102,0.0931,0
8048686,1,-0.0048,0.0004,-0.0001,0.0107,0.0145,0.1036,0
8048852,1,-0.0048,0.0004,-0.0001,-0.0021,-0.0095,0.0932,0
8049019,1,-0.0048,0.0004,-0.0001,0.0006,-0.0068,0.0762,0
8049186,1,-0.0048,0.0004,-0.0001,-0.0216,-0.0003,0.0768,0
8049352,1,-0.0048,0.0004,-0.0001,-0.0061,-0.0007,0.108,0
8049519,1,-0.0048,0.0004,-0.0001,-0.004,0.0044,0.0984,0
8049686,1,-0.0048,0.0004,-0.0001,0.009,-0.0131,0.0901,0
8049852,1,-0.0048,0.0004,-0.0001,0.0077,0.0022,0.0889,0
8050019,1,-0.0048,0.0004,-0.0001,-0.0018,-0.0111,0.1073,0
8050186,1,-0.0048,0.0004,-0.0001,0.0049,0.0038,0.1051,0
8050352,1,-0.0048,0.0004,-0.0001,0.0011,-0.0065,0.1035,0
8050519,1,-0.0048,0.0004,-0.0001,-0.0177,-0.0045,0.0819,0
8050686,1,-0.0048,0.0004,-0.0001,0.0026,0.0061,0.0963,0
8050852,1,-0.0048,0.0004,-0.0001,-0.0013,-0.0107,0.0948,0
8051019,1,-0.0048,0.0004,-0.0001,0.01,-0.006,0.1072,0
8051186,1,-0.0048,0.0004,-0.0001,-0.0026,-0.0071,0.1028,0
8051352,1,-0.0048,0.0004,-0.0001,0.0145,0.0112,0.0916,0
8051519,1,-0.0048,0.0004,-0.0001,-0.006,0.0063,0.0852,0
8051686,1,-0.0048,0.0004,-0.0001,-0.0062,0.0037,0.0905,0
8051852,1,-0.0048,0.0004,-0.0001,0.0079,-0.0061,0.108,0
8052019,1,-0.0048,0.0004,-0.0001,0.0015,0.0009,0.0917,0
8052186,1,-0.0048,0.0004,-0.0001,-0.0102,0.0045,0.0816,0
8052352,1,-0.0048,0.0004,-0.0001,0.0006,0.002,0.0982,0
8052519,1,-0.0048,0.0004,-0.0001,0.0149,0.0109,0.1019,0
8052686,1,-0.0048,0.0004,-0.0001,-0.0103,0.0087,0.1083,0
8052852,1,-0.0048,0.0004,-0.0001,0.0054,-0.0046,0.103,0
8053019,1,-0.0048,0.0004,-0.0001,0.0148,0.0074,0.0647,0
8053186,1,-0.0048,0.0004,-0.0001,0.0073,-0.0004,0.0957,0
8053352,1,-0.0048,0.0004,-0.0001,0.0029,0.0037,0.0954,0
8053519,1,-0.0048,0.0004,-0.0001,-0.0019,-0.0138,0.1052,0
8053686,1,-0.0048,0.0004,-0.0001,-0.0003,-0.0048,0.0825,0
8053852,1,-0.0048,0.0004,-0.0001,-0.0034,0.0094,0.0718,0
8054019,1,-0.0048,0.0004,-0.0001,0.0096,0.0046,0.1028,0
8054186,1,-0.0048,0.0004,-0.0001,-0.0013,0.0013,0.091,0
8054352,1,-0.0048,0.0004,-0.0001,0.0039,0.0027,0.0873,0
8054519,1,-0.0048,0.0004,-0.0001,0.0042,-0.0059,0.0951,0
8054686,1,-0.0048,0.0004,-0.0001,0.0093,0.0033,0.1026,0
8054852,1,-0.0048,0.0003,-0.0001,-0.004,0.0191,0.0998,0
8055019,1,-0.0048,0.0003,-0.0001,0.0012,0.0171,0.0951,0
8055186,1,-0.0048,0.0003,-0.0001,-0.0044,-0.0017,0.0866,0
8055352,1,-0.0048,0.0003,-0.0001,0.0095,-0.0065,0.0911,0
8055519,1,-0.0048,0.0003,-0.0001,0.0058,0.003,0.0884,0
8055686,1,-0.0048,0.0003,-0.0001,0.004,0.0004,0.1057,0
8055852,1,-0.0048,0.0003,-0.0001,-0.0034,0.001,0.1026,0
8056019,1,-0.0048,0.0003,-0.0001,0.0125,0.0012,0.0955,0
8056186,1,-0.0048,0.0003,-0.0001,0.0117,-0.0058,0.1047,0
8056352,1,-0.0048,0.0003,-0.0001,0.0171,-0.0009,0.108,0
8056519,1,-0.0048,0.0003,-0.0001,0.0086,-0.0068,0.0978,0
8056686,1,-0.0048,0.0003,-0.0001,-0.0032,0.0061,0.1124,0
8056852,1,-0.0048,0.0003,-0.0001,0.0052,0.0043,0.1102,0
8057019,1,-0.0048,0.0003,0,0.0031,0.0087,0.0965,0
8057186,1,-0.0048,0.0003,0,-0.0063,-0.0028,0.0852,0
8057352,1,-0.0048,0.0003,0,0.0015,-0.0059,0.076,0
8057519,1,-0.0048,0.0003,0,-0.0046,-0.0105,0.0988,0
8057686,1,-0.0048,0.0003,0,0.0056,-0.0213,0.0952,0
8057852,1,-0.0048,0.0003,0,-0.0064,0.0042,0.0932,0
8058019,1,-0.0048,0.0003,0,-0.007,-0.0038,0.1165,0
8058186,1,-0.0048,0.0003,0,0.0098,-0.0045,0.0901,0
8058352,1,-0.0048,0.0003,0,0.0048,-0.0011,0.1056,0
8058519,1,-0.0048,0.0003,-0.0001,0.0031,-0.0034,0.0837,0
8058686,1,-0.0048,0.0003,-0.0001,-0.005,-0.003,0.0919,0
8058852,1,-0.0048,0.0003,-0.0001,0.0069,-0.0058,0.091,0
8059019,1,-0.0048,0.0003,-0.0001,-0.003,-0.0028,0.0987,0
8059186,1,-0.0048,0.0003,-0.0001,0.009,0.0057,0.0817,0
8059352,1,-0.0048,0.0003,-0.0001,0.0006,0.0089,0.1079,0
8059519,1,-0.0048,0.0003,-0.0001,-0.0058,-0.0153,0.1116,0
8059686,1,-0.0048,0.0003,-0.0001,-0.0019,-0.0066,0.0761,0
8059852,1,-0.0048,0.0003,-0.0001,0.0058,-0.0049,0.0828,0
8060019,1,-0.0048,0.0003,-0.0001,0.0058,-0.0029,0.081,0
8060186,1,-0.0048,0.0003,-0.0001,-0.0029,-0.0061,0.073,0
8060352,1,-0.0048,0.0003,-0.0001,0.0016,-0.0081,0.1134,0
8060519,1,-0.0047,0.0003,-0.0001,-0.0003,-0.0077,0.0819,0
8060686,1,-0.0048,0.0003,-0.0001,0.0064,0.0021,0.0761,0
8060852,1,-0.0048,0.0003,-0.0001,0.005,-0.0134,0.1162,0
8061019,1,-0.0048,0.0003,-0.0001,-0.0073,0.0077,0.0883,0
8061186,1,-0.0048,0.0003,-0.0001,0.0011,-0.0038,0.0989,0
8061352,1,-0.0048,0.0003,0,-0.0095,-0.0136,0.0901,0
8061519,1,-0.0048,0.0003,0,-0.0199,0.0046,0.1082,0
8061686,1,-0.0048,0.0003,0,0.0024,-0.0109,0.0779,0
8061852,1,-0.0048,0.0003,0,0.0008,0.0034,0.0875,0
8062019,1,-0.0048,0.0004,0,-0.0019,-0.0044,0.0983,0
8062186,1,-0.0047,0.0003,0,0.0017,-0.0018,0.1025,0
8062352,1,-0.0047,0.0003,0,0.0014,-0.0069,0.095,0
8062519,1,-0.0047,0.0004,0,-0.0028,-0.0081,0.1021,0
8062686,1,-0.0047,0.0003,0,0.0008,-0.0036,0.0921,0
8062852,1,-0.0047,0.0004,0,0.0018,0.0056,0.0947,0
8063019,1,-0.0047,0.0004,0,-0.0055,0.0009,0.1094,0
8063186,1,-0.0047,0.0004,0,-0.0079,0.0056,0.09,0
8063353,1,-0.0047,0.0004,0,-0.0117,-0.0071,0.1056,0
8063519,1,-0.0047,0.0004,0,0.0036,-0.0157,0.104,0
8063686,1,-0.0047,0.0004,0,-0.0071,0.0047,0.1055,0
8063853,1,-0.0047,0.0004,0,0.0005,0.0025,0.1008,0
8064019,1,-0.0047,0.0004,0,-0.0024,-0.0038,0.0917,0
8064186,1,-0.0047,0.0004,0,0.0035,-0.0006,0.0835,0
8064353,1,-0.0047,0.0003,0,-0.0054,-0.0004,0.0774,0
8064519,1,-0.0047,0.0003,0,-0.014,-0.0036,0.084,0
8064686,1,-0.0047,0.0003,0,0.0071,-0.0075,0.1052,0
8064853,1,-0.0047,0.0003,0,0.0045,-0.0025,0.0965,0
8065019,1,-0.0047,0.0003,0,0.0037,-0.0094,0.0899,0
8065186,1,-0.0047,0.0003,0,0.005,-0.0129,0.0953,0
8065353,1,-0.0047,0.0003,0,-0.0059,-0.0017,0.0995,0
8065519,1,-0.0047,0.0003,0,0.0024,-0.0023,0.1046,0
8065686,1,-0.0047,0.0003,0,-0.0022,-0.0099,0.0935,0
8065853,1,-0.0047,0.0003,0,0.0042,-0.0082,0.0903,0
8066019,1,-0.0047,0.0003,0,-0.0088,-0.0051,0.0909,0
8066186,1,-0.0047,0.0003,0,-0.0101,-0.0132,0.0877,0
8066353,1,-0.0047,0.0003,0,0.0031,-0.01,0.1052,0
8066519,1,-0.0047,0.0003,0,-0.0086,-0.001,0.1103,0
8066686,1,-0.0047,0.0003,0,-0.0045,-0.0061,0.1093,0
8066853,1,-0.0047,0.0003,0,0.0007,-0.0073,0.1018,0
8067019,1,-0.0047,0.0003,0,0.002,-0.0057,0.0947,0
8067186,1,-0.0047,0.0003,0,0.0066,-0.0065,0.0854,0
8067353,1,-0.0047,0.0003,0,0.0063,0.0073,0.0928,0
8067519,1,-0.0047,0.0003,0,0.0036,0.0004,0.1114,0
8067686,1,-0.0047,0.0003,0,0.0064,0.0004,0.1155,0
8067853,1,-0.0047,0.0003,0,-0.0037,-0.0128,0.0582,0
8068019,1,-0.0046,0.0003,0,-0.0082,-0.0123,0.0798,0
8068186,1,-0.0046,0.0003,0,0.0142,-0.0056,0.0849,0
8068353,1,-0.0046,0.0003,0,-0.0123,-0.0076,0.0799,0
8068519,1,-0.0046,0.0003,0,0.0061,-0.0096,0.0972,0
8068686,1,-0.0046,0.0003,0,-0.0023,0.0016,0.0824,0
8068853,1,-0.0046,0.0003,0,0.0081,-0.0098,0.0875,0
8069019,1,-0.0046,0.0003,0,-0.0024,-0.0044,0.0613,0
8069186,1,-0.0047,0.0003,0,0.0039,-0.0094,0.0829,0
8069353,1,-0.0047,0.0003,0,0.0036,-0.0081,0.1018,0
8069519,1,-0.0047,0.0003,0,-0.0037,0.0009,0.0982,0
8069686,1,-0.0047,0.0003,0,0.0097,-0.0073,0.1139,0
8069853,1,-0.0047,0.0003,0,-0.0022,-0.0026,0.1063,0
8070019,1,-0.0047,0.0003,0,0.0138,-0.0107,0.0753,0
8070186,1,-0.0047,0.0003,0,-0.0008,0.0007,0.0878,0
8070353,1,-0.0047,0.0003,0,-0.0049,-0.0072,0.0899,0
8070519,1,-0.0047,0.0003,0,-0.006,0.005,0.086,0
8070686,1,-0.0047,0.0003,0,0.0061,-0.0044,0.095,0
8070853,1,-0.0047,0.0003,0,0.0024,0.0026,0.1004,0
8071019,1,-0.0047,0.0003,0,0.013,-0.0056,0.0967,0
8071186,1,-0.0047,0.0003,0,0.0104,-0.0118,0.1093,0
8071353,1,-0.0047,0.0003,0,0.004,-0.0134,0.0924,0
8071519,1,-0.0047,0.0003,0,-0.0171,-0.0025,0.0866,0
8071686,1,-0.0046,0.0003,0,-0.0014,-0.0054,0.0939,0
8071853,1,-0.0046,0.0003,0,-0.0047,-0.0074,0.1027,0
8072019,1,-0.0046,0.0003,0,0.0082,-0.0075,0.0843,0
8072186,1,-0.0046,0.0003,0,0.0044,-0.0072,0.1034,0
8072353,1,-0.0046,0.0003,0,0.0023,-0.0184,0.0993,0
8072519,1,-0.0046,0.0003,0,0.007,-0.004,0.1012,0
8072686,1,-0.0046,0.0003,0,-0.0029,-0.0046,0.1046,0
8072853,1,-0.0046,0.0003,0,-0.0019,-0.0061,0.1099,0
8073019,1,-0.0046,0.0003,0,-0.0047,-0.0113,0.0831,0
8073186,1,-0.0046,0.0003,0,-0.0025,-0.0031,0.1077,0
8073353,1,-0.0046,0.0004,0,-0.004,-0.0099,0.0963,0
8073519,1,-0.0046,0.0004,0,0.0059,-0.0082,0.0806,0
8073686,1,-0.0046,0.0004,0,0.0032,-0.0053,0.0778,0
8073853,1,-0.0046,0.0004,0,0.0014,-0.0089,0.0924,0
8074019,1,-0.0047,0.0004,0,-0.0024,-0.0031,0.0861,0
8074186,1,-0.0048,0.0003,0,0.0023,-0.006,0.0711,0
8074353,1,-0.0048,0.0003,0,-0.0161,-0.0069,0.0891,0
8074519,1,-0.0048,0.0003,0,0.0112,-0.0111,0.1014,0
8074686,1,-0.0048,0.0003,0,-0.002,0.008,0.0981,0
8074853,1,-0.0048,0.0004,0,0,-0.0026,0.0827,0
8075019,1,-0.0048,0.0004,0,-0.001,0.005,0.1054,0
8075186,1,-0.0048,0.0003,-0.0001,0.008,-0.003,0.1028,0
8075353,1,-0.0048,0.0004,-0.0001,-0.0031,-0.0036,0.0665,0
8075519,1,-0.0048,0.0004,-0.0001,0.0041,0.0057,0.0828,0
8075686,1,-0.0048,0.0004,-0.0001,-0.0007,-0.0063,0.0937,0
8075853,1,-0.0048,0.0004,-0.0001,0.0036,-0.008,0.0838,0
8076019,1,-0.0048,0.0004,-0.0001,-0.0159,-0.0017,0.0884,0
8076186,1,-0.0048,0.0003,-0.0001,0.0013,0.0035,0.1046,0
8076353,1,-0.0048,0.0003,0,-0.0029,-0.0082,0.0959,0
8076519,1,-0.0048,0.0003,0,-0.0067,-0.0041,0.0852,0
8076686,1,-0.0048,0.0003,0,-0.0048,0.0059,0.0925,0
8076853,1,-0.0048,0.0003,0,-0.0024,-0.0096,0.0819,0
8077019,1,-0.0048,0.0003,0,-0.0057,0.0059,0.0913,0
8077186,1,-0.0048,0.0003,0,-0.0053,0.0152,0.0822,0
8077353,1,-0.0048,0.0003,0,-0.0092,0.0013,0.09,0
8077519,1,-0.0048,0.0003,0,-0.0084,-0.0141,0.0819,0
8077686,1,-0.0048,0.0003,0,-0.0047,0.0061,0.1059,0
8077853,1,-0.0048,0.0003,0,0.0056,0.0039,0.0901,0
8078019,1,-0.0048,0.0003,0,0.0035,-0.0014,0.0768,0
8078186,1,-0.0048,0.0003,0,0.0009,-0.0028,0.114,0
8078353,1,-0.0048,0.0003,0,0.0094,-0.0116,0.0965,0
8078519,1,-0.0048,0.0003,-0.0001,0.0106,-0.0066,0.1001,0
8078686,1,-0.0048,0.0003,-0.0001,-0.0005,-0.0028,0.1212,0
8078853,1,-0.0048,0.0004,0,-0.0012,0.013,0.0837,0
8079019,1,-0.0048,0.0003,0,-0.0097,0.001,0.0839,0
8079186,1,-0.0048,0.0003,-0.0001,0.0022,0.0071,0.0941,0
8079353,1,-0.0048,0.0004,-0.0001,-0.0005,-0.0056,0.0527,0
8079519,1,-0.0048,0.0004,-0.0001,-0.0091,0.0039,0.0911,0
8079686,1,-0.0048,0.0004,-0.0001,0.0014,-0.0055,0.0836,0
8079853,1,-0.0048,0.0004,-0.0001,0.0013,-0.0057,0.0996,0
8080020,1,-0.0048,0.0004,-0.0001,-0.0131,0.0075,0.0713,0
8080186,1,-0.0048,0.0004,-0.0001,0.004,0.0024,0.1161,0
8080353,1,-0.0048,0.0004,-0.0001,0.0075,-0.0066,0.0634,0
8080520,1,-0.0048,0.0004,-0.0001,0.0036,-0.0047,0.1048,0
8080686,1,-0.0048,0.0004,-0.0001,0.0057,-0.006,0.0807,0
8080853,1,-0.0048,0.0004,-0.0001,0.0074,-0.0003,0.0878,0
8081020,1,-0.0048,0.0004,-0.0001,0.0082,-0.002,0.0769,0
8081186,1,-0.0048,0.0004,-0.0001,-0.0088,-0.0024,0.0824,0
8081353,1,-0.0048,0.0004,-0.0001,0.0144,0.0039,0.1055,0
8081520,1,-0.0048,0.0004,-0.0001,-0.0023,-0.005,0.0905,0
8081686,1,-0.0048,0.0004,-0.0001,-0.0054,-0.0061,0.0892,0
8081853,1,-0.0048,0.0004,-0.0001,-0.0072,0.0016,0.0675,0
8082020,1,-0.0048,0.0004,-0.0001,-0.0077,0.001,0.0906,0
8082186,1,-0.0048,0.0004,-0.0001,-0.0046,0.0085,0.0864,0
8082353,1,-0.0048,0.0004,-0.0001,0.0012,-0.001,0.096,0
8082520,1,-0.0048,0.0004,-0.0001,-0.0151,-0.001,0.0946,0
8082686,1,-0.0048,0.0004,0,0.0046,0.0009,0.0784,0
8082853,1,-0.0048,0.0004,-0.0001,0.0041,0.0036,0.0818,0
8083020,1,-0.0048,0.0004,0,0.0075,0.0032,0.0997,0
8083186,1,-0.0048,0.0004,0,-0.0041,-0.0041,0.0892,0
8083353,1,-0.0048,0.0004,-0.0001,0.0074,-0.0158,0.095,0
8083520,1,-0.0048,0.0004,0,0.007,0.0043,0.1005,0
8083686,1,-0.0048,0.0004,-0.0001,0.0005,-0.0048,0.0815,0
8083853,1,-0.0048,0.0004,0,-0.0031,-0.0188,0.1126,0
8084020,1,-0.0048,0.0004,-0.0001,0.0047,-0.0023,0.0939,0
8084186,1,-0.0048,0.0004,0,0.0113,0.0104,0.0997,0
8084353,1,-0.0048,0.0004,0,0.0102,-0.0062,0.0943,0
8084520,1,-0.0048,0.0004,-0.0001,0.0012,0.0137,0.0962,0
8084686,1,-0.0048,0.0004,-0.0001,-0.0048,-0.0019,0.1049,0
8084853,1,-0.0048,0.0004,-0.0001,0.0137,-0.0051,0.0915,0
8085020,1,-0.0048,0.0004,-0.0001,-0.0006,0.0095,0.0953,0
8085186,1,-0.0048,0.0004,-0.0001,0.0074,-0.0018,0.0916,0
8085353,1,-0.0048,0.0004,-0.0001,0.0133,-0.005,0.0927,0
8085520,1,-0.0048,0.0004,-0.0001,0.0008,-0.0032,0.1006,0
8085686,1,-0.0048,0.0004,-0.0001,0.0044,0.0031,0.0908,0
8085853,1,-0.0048,0.0004,0,-0.0033,-0.0115,0.0875,0
8086020,1,-0.0048,0.0004,-0.0001,-0.0027,0.0013,0.0944,0
8086186,1,-0.0048,0.0004,-0.0001,0.0083,-0.0041,0.0873,0
8086353,1,-0.0048,0.0004,-0.0001,-0.0183,-0.0206,0.0765,0
8086520,1,-0.0048,0.0004,0,0.0135,-0.0002,0.0849,0
8086686,1,-0.0048,0.0004,-0.0001,0.0017,-0.0089,0.1161,0
8086853,1,-0.0048,0.0004,-0.0001,-0.0023,0.0067,0.101,0
8087020,1,-0.0048,0.0004,-0.0001,-0.0049,0.0055,0.1064,0
8087186,1,-0.0048,0.0004,-0.0001,0.0074,-0.0081,0.0839,0
8087353,1,-0.0048,0.0004,-0.0001,0.0027,0.0007,0.095,0
8087520,1,-0.0048,0.0004,-0.0001,0.0019,0.0091,0.0814,0
8087686,1,-0.0048,0.0004,-0.0001,0.01,0.003,0.0718,0
8087853,1,-0.0048,0.0004,-0.0001,-0.0032,-0.0114,0.1102,0
8088020,1,-0.0048,0.0004,-0.0001,-0.0028,-0.0097,0.1038,0
8088186,1,-0.0048,0.0004,-0.0001,-0.0034,-0.0129,0.0911,0
8088353,1,-0.0048,0.0004,-0.0001,-0.0046,-0.0096,0.0781,0
8088520,1,-0.0048,0.0004,-0.0001,-0.0017,-0.005,0.1059,0
8088686,1,-0.0048,0.0004,-0.0001,0.0065,-0.002,0.0812,0
8088853,1,-0.0048,0.0004,-0.0001,0.0092,-0.008,0.0793,0
8089020,1,-0.0048,0.0004,-0.0001,0.0028,0.0043,0.0918,0
8089186,1,-0.0049,0.0004,-0.0001,0.0041,-0.0053,0.0996,0
8089353,1,-0.0049,0.0004,-0.0001,0.0113,0.0092,0.0853,0
8089520,1,-0.0049,0.0004,-0.0001,0.0079,0.0056,0.081,0
8089686,1,-0.0049,0.0004,-0.0001,-0.0058,-0.0004,0.0959,0
8089853,1,-0.0049,0.0004,-0.0001,0.0009,0.0021,0.0981,0
8090020,1,-0.0049,0.0004,-0.0001,0.0129,0.0025,0.092,0
8090186,1,-0.0049,0.0004,-0.0001,-0.0047,-0.0008,0.0898,0
8090353,1,-0.0049,0.0004,-0.0001,0.0147,0.0037,0.0975,0
8090520,1,-0.0049,0.0004,-0.0001,0.0053,0.0011,0.1053,0
8090686,1,-0.0049,0.0004,-0.0001,0.0036,0.0055,0.0941,0
8090853,1,-0.0049,0.0004,-0.0001,0.0008,-0.0038,0.0777,0
8091020,1,-0.0049,0.0004,-0.0001,0.0049,-0.0014,0.0724,0
8091186,1,-0.0048,0.0004,-0.0001,-0.0006,-0.0069,0.0865,0
8091353,1,-0.0049,0.0004,-0.0001,0.0147,-0.0093,0.0832,0
8091520,1,-0.0049,0.0004,-0.0001,-0.0046,0.0148,0.0942,0
8091686,1,-0.0049,0.0004,-0.0001,0.0019,-0.0201,0.0896,0
8091853,1,-0.0049,0.0004,-0.0001,0.0044,-0.0097,0.1147,0
8092020,1,-0.0049,0.0004,-0.0001,0.0064,0.0051,0.113,0
8092186,1,-0.0049,0.0004,-0.0001,-0.0057,-0.0052,0.1047,0
8092353,1,-0.0049,0.0004,-0.0001,-0.001,0.0012,0.0804,0
8092520,1,-0.0049,0.0004,-0.0001,0.002,0.0005,0.1087,0
8092686,1,-0.0049,0.0004,-0.0001,-0.0041,-0.009,0.0964,0
8092853,1,-0.0049,0.0004,-0.0001,-0.0086,0.0067,0.11,0
8093020,1,-0.0049,0.0004,-0.0001,0.0077,-0.019,0.0912,0
8093186,1,-0.0049,0.0004,-0.0001,0.0015,-0.0078,0.0775,0
8093353,1,-0.0049,0.0004,-0.0001,0.0025,-0.0093,0.0691,0
8093520,1,-0.0048,0.0004,-0.0001,0.0072,-0.0023,0.1033,0
8093686,1,-0.0049,0.0004,-0.0001,0.0067,-0.0065,0.0926,0
8093853,1,-0.0049,0.0004,-0.0001,0.0138,-0.0009,0.0774,0
8094020,1,-0.0048,0.0004,-0.0001,0.0008,0.0074,0.0793,0
8094186,1,-0.0048,0.0004,-0.0001,-0.0054,0.0046,0.0745,0
8094353,1,-0.0048,0.0004,-0.0001,-0.0027,0.0048,0.0782,0
8094520,1,-0.0048,0.0004,-0.0001,0.0015,-0.0024,0.0967,0
8094686,1,-0.0048,0.0004,-0.0001,0.0064,-0.0095,0.0804,0
8094853,1,-0.0048,0.0004,-0.0001,-0.0032,-0.0163,0.096,0
8095020,1,-0.0048,0.0004,-0.0001,-0.0005,-0.0118,0.1036,0
8095186,1,-0.0048,0.0004,-0.0001,0.0016,-0.0064,0.1012,0
8095353,1,-0.0048,0.0004,-0.0001,0.0033,-0.0037,0.0737,0
8095520,1,-0.0048,0.0004,-0.0001,0.0092,0.0049,0.079,0
8095686,1,-0.0048,0.0004,-0.0001,0.0001,-0.0083,0.116,0
8095853,1,-0.0048,0.0004,-0.0001,0.0041,0.0049,0.1012,0
8096020,1,-0.0048,0.0004,-0.0001,-0.0023,0.001,0.0813,0
8096186,1,-0.0048,0.0003,-0.0001,0.0055,0.0134,0.1177,0
8096353,1,-0.0048,0.0004,-0.0001,0.0016,-0.0056,0.0999,0
8096520,1,-0.0048,0.0004,-0.0001,0.0036,-0.0021,0.0697,0
8096687,1,-0.0048,0.0004,-0.0001,-0.0023,0.0026,0.0948,0
8096853,1,-0.0048,0.0004,-0.0001,0.0076,-0.0015,0.0967,0
8097020,1,-0.0048,0.0004,-0.0001,-0.0003,-0.002,0.1197,0
8097187,1,-0.0048,0.0004,-0.0001,-0.0073,-0.0045,0.094,0
8097353,1,-0.0048,0.0004,-0.0001,0.0089,-0.0018,0.0802,0
8097520,1,-0.0048,0.0004,-0.0001,0.0032,-0.0037,0.1076,0
8097687,1,-0.0048,0.0004,-0.0001,0.005,0.0017,0.0769,0
8097853,1,-0.0048,0.0004,-0.0001,0.008,-0.0032,0.0982,0
8098020,1,-0.0048,0.0004,-0.0001,-0.005,0.0035,0.0961,0
8098187,1,-0.0048,0.0004,-0.0001,0.0025,0.0031,0.092,0
8098353,1,-0.0048,0.0004,-0.0001,-0.0063,0.0061,0.0955,0
8098520,1,-0.0048,0.0004,-0.0001,0.004,-0.0054,0.0975,0
8098687,1,-0.0048,0.0004,-0.0001,0.003,0.002,0.0856,0
8098853,1,-0.0048,0.0004,-0.0001,0.004,0.0015,0.0883,0
8099020,1,-0.0048,0.0004,-0.0001,0.0012,0.0069,0.1043,0
8099187,1,-0.0048,0.0004,-0.0001,0.0038,0.0051,0.1029,0
8099353,1,-0.0048,0.0004,-0.0001,0.0007,-0.0029,0.088,0
8099520,1,-0.0048,0.0004,-0.0001,-0.0048,-0.0036,0.0715,0
8099687,1,-0.0048,0.0004,-0.0001,-0.0006,-0.0047,0.0968,0
8099853,1,-0.0048,0.0004,-0.0001,0.0021,0.0011,0.1023,0
8100020,1,-0.0048,0.0004,-0.0001,-0.0002,-0.0004,0.0856,0
8100187,1,-0.0048,0.0004,-0.0001,0.011,-0.0065,0.0955,0
8100353,1,-0.0048,0.0004,-0.0001,0.0122,0.0041,0.1037,0
8100520,1,-0.0048,0.0004,-0.0001,0.0027,0.0021,0.1064,0
8100687,1,-0.0048,0.0004,-0.0001,-0.0046,-0.0024,0.1101,0
8100853,1,-0.0048,0.0004,-0.0001,0.0038,-0.0028,0.0828,0
8101020,1,-0.0048,0.0004,-0.0001,-0.0102,-0.006,0.0927,0
8101187,1,-0.0048,0.0004,-0.0001,0.0015,-0.0067,0.1118,0
8101353,1,-0.0048,0.0004,-0.0001,-0.0051,-0.0018,0.0914,0
8101520,1,-0.0048,0.0004,-0.0001,-0.0031,0.0094,0.0913,0
8101687,1,-0.0048,0.0004,-0.0001,-0.0091,0.0049,0.0434,0
8101853,1,-0.0048,0.0004,-0.0001,0.0051,0.0192,0.1536,0
8102020,1,-0.0048,0.0004,-0.0001,0.0072,0.0055,0.0318,0
8102187,1,-0.0048,0.0004,-0.0001,-0.0054,0.0035,0.1423,0
8102353,1,-0.0048,0.0004,-0.0001,0.0101,0.0087,0.0906,0
8102520,1,-0.0048,0.0004,-0.0001,-0.0017,0.0038,0.0319,0
8102687,1,-0.0048,0.0004,-0.0001,-0.0161,-0.0157,0.1565,0
8102853,1,-0.0048,0.0004,-0.0001,0.0067,-0.0019,0.0514,0
8103020,1,-0.0048,0.0004,-0.0001,-0.0014,-0.0024,0.0808,0
8103187,1,-0.0048,0.0005,-0.0001,-0.012,0.006,0.1259,0
8103353,1,-0.0048,0.0005,-0.0001,0.0029,-0.0053,0.0245,0
8103520,1,-0.0048,0.0005,-0.0001,-0.0118,-0.0091,0.1296,0
8103687,1,-0.0048,0.0005,-0.0001,-0.0102,-0.0099,0.1068,0
8103853,1,-0.0048,0.0005,-0.0001,0.008,-0.0036,0.0592,0
8104020,1,-0.0048,0.0005,-0.0001,0.0047,0.0055,0.1363,0
8104187,1,-0.0048,0.0005,-0.0001,0.0003,-0.0181,0.057,0
8104353,1,-0.0048,0.0005,-0.0001,0.0002,0.0105,0.0623,0
8104520,1,-0.0048,0.0005,-0.0001,0.0202,-0.0179,0.1532,0
8104687,1,-0.0048,0.0005,-0.0001,0.0131,-0.017,0.0471,0
8104853,1,-0.0048,0.0004,-0.0001,0.007,-0.0154,0.0909,0
8105020,1,-0.0048,0.0005,-0.0001,-0.0089,0.0107,0.0969,0
8105187,1,-0.0048,0.0005,-0.0001,0.0031,0.0074,0.0084,0
8105353,1,-0.0048,0.0005,-0.0001,0,0.0012,0.1181,0
8105520,1,-0.0048,0.0005,-0.0001,0.0116,0.0128,0.1505,0
8105687,1,-0.0048,0.0005,-0.0001,0.0101,-0.0464,0.007,0
8105853,1,-0.0048,0.0005,-0.0001,0.0173,0.0269,0.2451,0
8106020,1,-0.0048,0.0005,-0.0001,0.026,0.0028,0.0474,0
8106187,1,-0.0048,0.0005,-0.0001,0.0101,0.0035,0.0243,0
8106353,1,-0.0048,0.0005,-0.0001,-0.0347,0.0202,0.147,0
8106520,1,-0.0048,0.0005,-0.0001,0.0043,0.0037,0,0
8106687,1,-0.0048,0.0005,-0.0001,0.0047,-0.0276,0.1467,0
8106853,1,-0.0048,0.0005,-0.0001,0.0247,-0.0343,0.1383,0
8107020,1,-0.0048,0.0005,-0.0001,0.0339,-0.018,0.017,0
8107187,1,-0.0048,0.0005,-0.0002,-0.0073,0.0186,0.1588,0
8107353,1,-0.0048,0.0006,-0.0002,-0.0303,0.0159,0.0344,0
8107520,1,-0.0048,0.0006,-0.0002,-0.0132,-0.0173,0.0152,0
8107687,1,-0.0048,0.0005,-0.0002,-0.0182,-0.0251,0.1297,0
8107853,1,-0.0048,0.0005,-0.0002,0.0225,-0.0351,0.0451,0
8108020,1,-0.0048,0.0005,-0.0001,0.0123,-0.0146,0.1373,0
8108187,1,-0.0048,0.0005,-0.0001,0.0228,0.054,0.1546,0
8108353,1,-0.0048,0.0005,-0.0001,0.0421,0.0845,0.0851,0
8108520,1,-0.0048,0.0005,-0.0001,0.001,0.0251,0.1495,0
8108687,1,-0.0048,0.0006,-0.0001,-0.004,-0.0361,0.0498,0
8108853,1,-0.0048,0.0005,-0.0001,-0.0386,-0.0448,0.0241,0
8109020,1,-0.0048,0.0005,-0.0001,-0.0376,-0.0767,0.104,0
8109187,1,-0.0048,0.0005,-0.0001,0.0054,-0.0347,0.0983,0
8109353,1,-0.0048,0.0005,-0.0001,0.0728,0.054,0.2093,0
8109520,1,-0.0048,0.0005,-0.0001,0.0637,0.0903,0.1514,0
8109687,1,-0.0048,0.0005,-0.0002,0.004,0.03,0.0365,0
8109853,1,-0.0048,0.0005,-0.0002,-0.0247,-0.0483,0.0869,0
8110020,1,-0.0048,0.0005,-0.0002,-0.0841,-0.0931,0.0672,0
8110187,1,-0.0048,0.0005,-0.0001,-0.0565,-0.0891,-0.0091,0
8110353,1,-0.0048,0.0005,-0.0001,0.0271,0.0388,0.1259,0
8110520,1,-0.0048,0.0005,-0.0001,0.0822,0.1125,0.1607,0
8110687,1,-0.0048,0.0005,-0.0001,0.1144,0.1082,0.1211,0
8110853,1,-0.0048,0.0005,-0.0001,0.0163,0.0357,0.1101,0
8111020,1,-0.0048,0.0005,-0.0002,-0.0715,-0.0768,0.0387,0
8111187,1,-0.0048,0.0005,-0.0002,-0.0836,-0.1304,-0.01,0
8111353,1,-0.0048,0.0005,-0.0002,-0.0785,-0.116,-0.0275,0
8111520,1,-0.0048,0.0005,-0.0001,0.006,0.0637,0.1251,0
8111687,1,-0.0048,0.0004,-0.0001,0.0937,0.1484,0.1483,0
8111853,1,-0.0048,0.0004,-0.0001,0.1033,0.0972,0.1824,0
8112020,1,-0.0048,0.0005,-0.0002,0.0975,0.0101,0.3095,0
8112187,1,-0.0048,0.0005,-0.0002,0.0142,-0.1337,-0.0804,0
8112353,1,-0.0048,0.0005,-0.0002,-0.1155,-0.1498,0.0212,0
8112520,1,-0.0048,0.0005,-0.0001,-0.0945,-0.0143,0.111,0
8112687,1,-0.0048,0.0005,-0.0002,0.0038,0.0695,-0.0946,0
8112853,1,-0.0048,0.0005,-0.0002,0.0392,0.0935,0.2497,0
8113020,1,-0.0048,0.0005,-0.0002,0.1303,0.0608,0.22,0
8113187,1,-0.0048,0.0005,-0.0002,0.1037,-0.0344,0.0182,0
8113354,1,-0.0048,0.0006,-0.0002,-0.0415,-0.121,0.2193,0
8113520,1,-0.0048,0.0006,-0.0002,-0.0815,-0.0683,-0.0371,0
8113687,1,-0.0048,0.0006,-0.0002,-0.0809,0.0232,-0.0554,0
8113854,1,-0.0048,0.0006,-0.0002,-0.0532,0.0493,0.1642,0
8114020,1,-0.0048,0.0005,-0.0002,0.0486,0.0564,-0.0097,0
8114187,1,-0.0048,0.0005,-0.0002,0.0894,0.0151,0.2409,0
8114354,1,-0.0048,0.0005,-0.0002,0.0614,-0.0305,0.2333,0
8114520,1,-0.0048,0.0006,-0.0002,0.0014,-0.0839,-0.0733,0
8114687,1,-0.0048,0.0006,-0.0002,-0.0839,-0.0107,0.1569,0
8114854,1,-0.0048,0.0006,-0.0002,-0.0582,0.0479,-0.0113,0
8115020,1,-0.0048,0.0006,-0.0002,-0.0085,0.0412,-0.0086,0
8115187,1,-0.0048,0.0006,-0.0002,0.0244,0.0121,0.2517,0
8115354,1,-0.0048,0.0006,-0.0002,0.0987,-0.0177,0.082,0
8115520,1,-0.0048,0.0006,-0.0002,0.0395,-0.0611,0.1335,0
8115687,1,-0.0048,0.0006,-0.0002,-0.0251,-0.0284,0.1277,0
8115854,1,-0.0048,0.0006,-0.0002,-0.0524,0.0278,-0.0399,0
8116020,1,-0.0048,0.0006,-0.0002,-0.0692,0.0336,0.0963,0
8116187,1,-0.0048,0.0006,-0.0002,0.0048,-0.0004,0.0488,0
8116354,1,-0.0048,0.0006,-0.0002,0.0685,-0.01,0.0976,0
8116520,1,-0.0048,0.0006,-0.0002,0.0771,-0.0308,0.2335,0
8116687,1,-0.0048,0.0006,-0.0002,0.0437,-0.0219,0.0395,0
8116854,1,-0.0048,0.0006,-0.0002,-0.0286,0.0108,0.0568,0
8117020,1,-0.0048,0.0006,-0.0002,-0.0622,0.0257,0.0469,0
8117187,1,-0.0048,0.0006,-0.0002,-0.0417,0.0044,-0.023,0
8117354,1,-0.0048,0.0006,-0.0002,0.0059,-0.0268,0.1458,0
8117520,1,-0.0048,0.0006,-0.0002,0.0663,-0.0313,0.1254,0
8117687,1,-0.0048,0.0006,-0.0002,0.0851,-0.0058,0.1345,0
8117854,1,-0.0048,0.0006,-0.0002,0.0238,0.007,0.1544,0
8118020,1,-0.0048,0.0006,-0.0002,-0.0202,0.0324,0.0107,0
8118187,1,-0.0048,0.0006,-0.0002,-0.057,0.0368,0.0466,0
8118354,1,-0.0048,0.0006,-0.0002,-0.066,-0.0222,0.0577,0
8118520,1,-0.0048,0.0006,-0.0002,0.0046,-0.0562,0.0705,0
8118687,1,-0.0048,0.0006,-0.0002,0.0569,-0.0149,0.1726,0
8118854,1,-0.0048,0.0006,-0.0002,0.0728,0.002,0.1456,0
8119020,1,-0.0048,0.0006,-0.0002,0.0276,0.0264,0.0922,0
8119187,1,-0.0048,0.0006,-0.0002,-0.031,0.0412,0.0933,0
8119354,1,-0.0048,0.0006,-0.0002,-0.0527,-0.0065,0.0168,0
8119520,1,-0.0048,0.0006,-0.0002,-0.0396,-0.0303,0.0467,0
8119687,1,-0.0048,0.0006,-0.0002,0.0011,-0.0585,0.1252,0
8119854,1,-0.0048,0.0006,-0.0002,0.0474,-0.0048,0.1151,0
8120020,1,-0.0048,0.0006,-0.0002,0.0602,0.0255,0.1445,0
8120187,1,-0.0048,0.0007,-0.0002,0.019,0.0332,0.1245,0
8120354,1,-0.0048,0.0007,-0.0002,-0.0146,0.0346,0.0648,0
8120520,1,-0.0048,0.0007,-0.0002,-0.0502,-0.033,0.0752,0
8120687,1,-0.0048,0.0007,-0.0002,-0.0401,-0.0655,0.0471,0
8120854,1,-0.0048,0.0006,-0.0002,0.0072,-0.0241,0.0783,0
8121020,1,-0.0048,0.0006,-0.0002,0.0465,0.0209,0.1225,0
8121187,1,-0.0048,0.0006,-0.0002,0.038,0.0394,0.1142,0
8121354,1,-0.0048,0.0006,-0.0002,0.0006,0.0406,0.0989,0
8121520,1,-0.0048,0.0006,-0.0002,-0.0282,-0.0112,0.0801,0
8121687,1,-0.0048,0.0006,-0.0002,-0.031,-0.0483,0.0477,0
8121854,1,-0.0048,0.0006,-0.0002,-0.0243,-0.0621,0.0759,0
8122020,1,-0.0048,0.0006,-0.0002,0.0021,0.0079,0.0887,0
8122187,1,-0.0048,0.0006,-0.0002,0.0369,0.0507,0.1284,0
8122354,1,-0.0048,0.0006,-0.0002,0.0237,0.0496,0.1184,0
8122520,1,-0.0048,0.0006,-0.0002,0.0108,0.0379,0.0836,0
8122687,1,-0.0048,0.0006,-0.0002,-0.0074,-0.0308,0.1154,0
8122854,1,-0.0048,0.0006,-0.0003,-0.0151,-0.058,0.0604,0
8123020,1,-0.0048,0.0006,-0.0002,-0.0046,-0.034,0.0696,0
8123187,1,-0.0048,0.0006,-0.0002,0.0123,0.0133,0.1186,0
8123354,1,-0.0048,0.0006,-0.0003,0.0422,0.0513,0.1061,0
8123520,1,-0.0048,0.0006,-0.0002,0.0383,0.0278,0.1271,0
8123687,1,-0.0048,0.0006,-0.0003,0.0109,0.0021,0.1107,0
8123854,1,-0.0048,0.0006,-0.0003,-0.0243,-0.0487,0.0555,0
8124020,1,-0.0048,0.0006,-0.0003,-0.0191,-0.0457,0.0731,0
8124187,1,-0.0048,0.0007,-0.0003,-0.0081,-0.022,0.0911,0
8124354,1,-0.0048,0.0006,-0.0002,0.0099,0.025,0.1092,0
8124520,1,-0.0048,0.0006,-0.0003,0.0291,0.0571,0.1205,0
8124687,1,-0.0048,0.0006,-0.0002,0.0387,0.0332,0.1123,0
8124854,1,-0.0048,0.0006,-0.0003,0.0227,-0.0041,0.0899,0
8125020,1,-0.0048,0.0006,-0.0003,-0.0095,-0.0322,0.079,0
8125187,1,-0.0048,0.0006,-0.0003,-0.0246,-0.0212,0.0716,0
8125354,1,-0.0048,0.0006,-0.0003,-0.008,0.0161,0.0761,0
8125520,1,-0.0048,0.0006,-0.0003,0.025,0.046,0.0849,0
8125687,1,-0.0048,0.0006,-0.0003,0.0305,0.0306,0.1254,0
8125854,1,-0.0048,0.0006,-0.0002,0.006,0.0036,0.1344,0
8126020,1,-0.0048,0.0006,-0.0002,0.0021,-0.0287,0.0948,0
8126187,1,-0.0048,0.0007,-0.0002,-0.0142,-0.0305,0.078,0
8126354,1,-0.0048,0.0007,-0.0002,-0.0309,-0.0059,0.0673,0
8126520,1,-0.0048,0.0006,-0.0002,-0.004,0.0064,0.089,0
8126687,1,-0.0048,0.0007,-0.0002,0.013,0.0216,0.1274,0
8126854,1,-0.0048,0.0007,-0.0002,0.0381,0.0077,0.1103,0
8127020,1,-0.0048,0.0007,-0.0002,0.0225,-0.0089,0.1147,0
8127187,1,-0.0048,0.0007,-0.0002,0.0206,-0.0125,0.0967,0
8127354,1,-0.0048,0.0007,-0.0002,-0.0099,-0.0179,0.0601,0
8127520,1,-0.0048,0.0007,-0.0002,-0.0163,0.013,0.0523,0
8127687,1,-0.0048,0.0007,-0.0002,-0.0066,0.0263,0.0805,0
8127854,1,-0.0048,0.0007,-0.0002,0.0204,0.0092,0.1248,0
8128020,1,-0.0048,0.0007,-0.0002,0.0307,-0.0196,0.1241,0
8128187,1,-0.0048,0.0007,-0.0003,0.0161,-0.0099,0.1134,0
8128354,1,-0.0048,0.0007,-0.0002,0.0144,-0.019,0.094,0
8128520,1,-0.0048,0.0007,-0.0002,-0.0247,-0.0075,0.0481,0
8128687,1,-0.0048,0.0007,-0.0002,-0.0121,0.0229,0.0743,0
8128854,1,-0.0048,0.0007,-0.0003,-0.0087,0.0091,0.0749,0
8129020,1,-0.0048,0.0007,-0.0003,0.0133,-0.0103,0.0965,0
8129187,1,-0.0048,0.0007,-0.0003,0.0299,-0.0103,0.1078,0
8129354,1,-0.0048,0.0007,-0.0003,0.0215,-0.0165,0.1044,0
8129520,1,-0.0049,0.0007,-0.0003,0.0001,-0.0043,0.0682,0
8129687,1,-0.0049,0.0007,-0.0003,-0.0166,0.002,0.0854,0
8129854,1,-0.0049,0.0007,-0.0002,-0.0226,0.0194,0.0577,0
8130021,1,-0.0049,0.0007,-0.0003,0.0006,-0.0073,0.0955,0
8130187,1,-0.0049,0.0007,-0.0003,0.0146,-0.0025,0.1203,0
8130354,1,-0.0049,0.0007,-0.0003,0.0319,-0.0073,0.1334,0
8130521,1,-0.0049,0.0007,-0.0003,0.0119,0.0051,0.116,0
8130687,1,-0.0049,0.0007,-0.0002,0.0016,0.0035,0.0933,0
8130854,1,-0.0049,0.0007,-0.0002,-0.001,0.0179,0.0834,0
8131021,1,-0.0049,0.0007,-0.0003,-0.0233,0.0004,0.103,0
8131187,1,-0.0049,0.0007,-0.0002,0.019,-0.0014,0.1002,0
8131354,1,-0.0049,0.0007,-0.0002,0.0098,-0.0078,0.1043,0
8131521,1,-0.0049,0.0007,-0.0002,0.0203,-0.0063,0.1156,0
8131687,1,-0.0048,0.0007,-0.0002,0.0177,0.0056,0.1135,0
8131854,1,-0.0049,0.0007,-0.0002,0.0023,0.0145,0.0997,0
8132021,1,-0.0048,0.0007,-0.0003,0.0002,-0.0095,0.0936,0
8132187,1,-0.0049,0.0007,-0.0003,-0.0064,-0.0027,0.0811,0
8132354,1,-0.0049,0.0007,-0.0003,0.0181,-0.0215,0.0667,0
8132521,1,-0.0049,0.0007,-0.0003,0.0155,-0.0037,0.0926,0
8132687,1,-0.0049,0.0007,-0.0003,0.027,0.012,0.0986,0
8132854,1,-0.0049,0.0007,-0.0003,0.0103,0.0278,0.0953,0
8133021,1,-0.0048,0.0007,-0.0003,-0.0085,0.0052,0.1015,0
8133187,1,-0.0048,0.0007,-0.0003,-0.0058,-0.0199,0.0899,0
8133354,1,-0.0048,0.0007,-0.0003,-0.0078,-0.0107,0.1012,0
8133521,1,-0.0048,0.0007,-0.0003,0.0012,-0.014,0.1055,0
8133687,1,-0.0049,0.0007,-0.0003,0.0309,0.0134,0.0992,0
8133854,1,-0.0049,0.0007,-0.0003,0.0253,0.009,0.1063,0
8134021,1,-0.0048,0.0006,-0.0003,0.0163,0.0118,0.1134,0
8134187,1,-0.0048,0.0006,-0.0003,0.0007,-0.0039,0.092,0
8134354,1,-0.0048,0.0006,-0.0003,-0.0108,-0.0149,0.0846,0
8134521,1,-0.0047,0.0007,-0.0003,0.001,-0.0283,0.1121,0
8134687,1,-0.0047,0.0006,-0.0003,-0.0038,-0.0076,0.0667,0
8134854,1,-0.0047,0.0007,-0.0003,0.0184,-0.0025,0.1229,0
8135021,1,-0.0048,0.0007,-0.0003,0.018,0.0098,0.0923,0
8135187,1,-0.0047,0.0007,-0.0003,0.0025,0.0142,0.0819,0
8135354,1,-0.0047,0.0007,-0.0003,-0.0152,-0.0063,0.0929,0
8135521,1,-0.0048,0.0007,-0.0003,0.0001,-0.021,0.0955,0
8135687,1,-0.0048,0.0006,-0.0003,0.0011,-0.0064,0.0846,0
8135854,1,-0.0048,0.0007,-0.0003,0.0204,-0.0124,0.0871,0
8136021,1,-0.0048,0.0006,-0.0003,0.0102,0.016,0.1085,0
8136187,1,-0.0048,0.0006,-0.0003,0.0076,0.0155,0.0865,0
8136354,1,-0.0048,0.0007,-0.0003,0.0057,0.0044,0.0929,0
8136521,1,-0.0047,0.0007,-0.0003,0.0032,-0.0292,0.1011,0
8136687,1,-0.0048,0.0007,-0.0003,-0.0078,-0.0237,0.0892,0
8136854,1,-0.0048,0.0007,-0.0003,0.0085,0.0005,0.0921,0
8137021,1,-0.0048,0.0007,-0.0003,0.0009,0.0001,0.0869,0
8137187,1,-0.0048,0.0007,-0.0003,0.0078,0.0229,0.0899,0
8137354,1,-0.0048,0.0007,-0.0003,0.0143,0.0139,0.1068,0
8137521,1,-0.0048,0.0007,-0.0003,-0.0074,-0.0121,0.0722,0
8137687,1,-0.0048,0.0007,-0.0003,-0.0035,-0.0234,0.083,0
8137854,1,-0.0048,0.0007,-0.0003,-0.0016,-0.0008,0.0771,0
8138021,1,-0.0048,0.0007,-0.0003,-0.0099,-0.006,0.09,0
8138187,1,-0.0048,0.0007,-0.0003,0.0059,0.0168,0.0973,0
8138354,1,-0.0048,0.0007,-0.0003,0.0102,0.0027,0.0931,0
8138521,1,-0.0048,0.0007,-0.0003,0.0132,0.0031,0.1037,0
8138687,1,-0.0048,0.0006,-0.0003,0.0107,-0.0128,0.0899,0
8138854,1,-0.0048,0.0006,-0.0003,-0.0045,0.0003,0.0905,0
8139021,1,-0.0048,0.0007,-0.0003,0.0059,-0.0052,0.074,0
8139187,1,-0.0048,0.0007,-0.0003,0.0003,0.0094,0.0891,0
8139354,1,-0.0048,0.0007,-0.0003,0.023,0.0172,0.1003,0
8139521,1,-0.0048,0.0007,-0.0003,0.0064,0.0062,0.1103,0
8139687,1,-0.0048,0.0007,-0.0003,0.0109,-0.0046,0.1023,0
8139854,1,-0.0048,0.0007,-0.0003,-0.0063,0.0061,0.0908,0
8140021,1,-0.0048,0.0007,-0.0003,0.0005,-0.0075,0.0864,0
8140187,1,-0.0048,0.0007,-0.0003,-0.0031,-0.0004,0.0829,0
8140354,1,-0.0048,0.0007,-0.0003,0.0001,0.0004,0.0906,0
8140521,1,-0.0048,0.0007,-0.0003,0.0135,0.0103,0.1064,0
8140687,1,-0.0048,0.0007,-0.0003,0.0146,-0.008,0.0976,0
8140854,1,-0.0048,0.0007,-0.0003,-0.0008,-0.0079,0.1033,0
8141021,1,-0.0048,0.0007,-0.0003,-0.0008,-0.016,0.0973,0
8141187,1,-0.0048,0.0007,-0.0003,-0.0066,-0.0018,0.0834,0
8141354,1,-0.0048,0.0007,-0.0003,-0.0009,0.0055,0.0982,0
8141521,1,-0.0048,0.0007,-0.0003,0.0008,-0.0009,0.0847,0
8141687,1,-0.0048,0.0007,-0.0003,0.0028,0.0046,0.113,0
8141854,1,-0.0048,0.0007,-0.0003,0.0108,-0.0008,0.1158,0
8142021,1,-0.0048,0.0007,-0.0003,0.0056,-0.0152,0.0935,0
8142187,1,-0.0048,0.0007,-0.0003,0.0079,-0.0063,0.0939,0
8142354,1,-0.0048,0.0007,-0.0003,-0.013,0.0031,0.1057,0
8142521,1,-0.0048,0.0007,-0.0003,-0.0017,0.0057,0.0772,0
8142687,1,-0.0048,0.0007,-0.0003,0.0177,0,0.0829,0
8142854,1,-0.0048,0.0007,-0.0003,0.0043,0.0045,0.1178,0
8143021,1,-0.0048,0.0007,-0.0003,0.0029,-0.0113,0.1046,0
8143187,1,-0.0048,0.0007,-0.0003,0.0251,-0.0162,0.1038,0
8143354,1,-0.0048,0.0007,-0.0003,-0.0062,0.0007,0.083,0
8143521,1,-0.0048,0.0007,-0.0003,-0.0044,0.0032,0.0771,0
8143687,1,-0.0048,0.0007,-0.0003,-0.011,0.0002,0.1067,0
8143854,1,-0.0048,0.0007,-0.0003,0.0095,-0.0097,0.1114,0
8144021,1,-0.0048,0.0007,-0.0003,0.0128,-0.0095,0.1066,0
8144187,1,-0.0048,0.0007,-0.0003,0.0026,-0.0044,0.096,0
8144354,1,-0.0048,0.0007,-0.0003,-0.008,0.0067,0.0936,0
8144521,1,-0.0048,0.0007,-0.0003,0.0053,0.0146,0.1117,0
8144687,1,-0.0048,0.0007,-0.0002,-0.001,0.0093,0.0897,0
8144854,1,-0.0048,0.0007,-0.0002,0.0044,-0.0064,0.0846,0
8145021,1,-0.0048,0.0007,-0.0002,0.0108,-0.0072,0.1077,0
8145187,1,-0.0048,0.0007,-0.0002,0.0053,-0.0027,0.089,0
8145354,1,-0.0048,0.0007,-0.0003,0.0112,0.0074,0.1126,0
8145521,1,-0.0048,0.0007,-0.0003,0.0195,0.0022,0.1087,0
8145687,1,-0.0048,0.0007,-0.0003,-0.0079,0.0049,0.0849,0
8145854,1,-0.0048,0.0007,-0.0003,-0.001,-0.0099,0.1171,0
8146021,1,-0.0048,0.0007,-0.0002,-0.0037,-0.0203,0.0871,0
8146187,1,-0.0048,0.0007,-0.0002,0.0068,-0.0149,0.0947,0
8146354,1,-0.0048,0.0007,-0.0002,0.0047,-0.0084,0.0981,0
8146521,1,-0.0048,0.0007,-0.0003,0.0056,-0.012,0.0918,0
8146688,1,-0.0048,0.0007,-0.0002,0.0159,0.005,0.0916,0
8146854,1,-0.0048,0.0007,-0.0002,0.0058,-0.0041,0.0965,0
8147021,1,-0.0048,0.0007,-0.0002,-0.0019,0.0131,0.1115,0
8147188,1,-0.0048,0.0007,-0.0002,0.0016,-0.016,0.0907,0
8147354,1,-0.0047,0.0007,-0.0002,-0.0034,-0.0027,0.0732,0
8147521,1,-0.0047,0.0007,-0.0002,0.0058,-0.0039,0.0897,0
8147688,1,-0.0048,0.0007,-0.0002,0.0152,0.0037,0.0892,0
8147854,1,-0.0048,0.0007,-0.0002,0.0067,-0.0021,0.1107,0
8148021,1,-0.0048,0.0007,-0.0002,0.0181,-0.0121,0.0778,0
8148188,1,-0.0048,0.0007,-0.0002,-0.0034,-0.0007,0.0946,0
8148354,1,-0.0048,0.0007,-0.0002,0.0106,-0.0051,0.1006,0
8148521,1,-0.0048,0.0007,-0.0002,0.003,0.0055,0.0935,0
8148688,1,-0.0048,0.0007,-0.0002,0.0039,0.0065,0.0888,0
8148854,1,-0.0048,0.0007,-0.0002,-0.0008,0.0034,0.0935,0
8149021,1,-0.0048,0.0007,-0.0002,0.0137,-0.0045,0.1012,0
8149188,1,-0.0048,0.0007,-0.0002,0.0107,-0.0171,0.0912,0
8149354,1,-0.0048,0.0007,-0.0002,0.0005,-0.0063,0.1092,0
8149521,1,-0.0048,0.0007,-0.0002,-0.0012,-0.016,0.085,0
8149688,1,-0.0048,0.0007,-0.0002,0.0148,-0.0076,0.0815,0
8149854,1,-0.0048,0.0007,-0.0002,0.0082,-0.0017,0.0817,0
8150021,1,-0.0048,0.0007,-0.0002,0.017,-0.004,0.0971,0
8150188,1,-0.0048,0.0007,-0.0002,0.0106,-0.012,0.0896,0
8150354,1,-0.0048,0.0007,-0.0002,-0.0008,-0.0072,0.0749,0
8150521,1,-0.0048,0.0007,-0.0002,-0.0067,-0.0073,0.0688,0
8150688,1,-0.0048,0.0007,-0.0002,-0.0069,0.0084,0.0922,0
8150854,1,-0.0048,0.0007,-0.0002,0.0161,0.015,0.1015,0
8151021,1,-0.0048,0.0007,-0.0002,0.0116,-0.0039,0.0957,0
8151188,1,-0.0048,0.0007,-0.0002,0.0145,-0.0118,0.0964,0
8151354,1,-0.0048,0.0007,-0.0002,0.0196,0.0018,0.0941,0
8151521,1,-0.0048,0.0007,-0.0002,0.0054,-0.0058,0.0806,0
8151688,1,-0.0048,0.0007,-0.0002,0.0013,0.0016,0.0928,0
8151854,1,-0.0048,0.0007,-0.0002,0.0061,0.006,0.0928,0
8152021,1,-0.0048,0.0007,-0.0002,0.0048,-0.0077,0.0851,0
8152188,1,-0.0048,0.0007,-0.0002,0.0146,0.0102,0.1105,0
8152354,1,-0.0048,0.0007,-0.0002,0.0137,-0.0128,0.1176,0
8152521,1,-0.0048,0.0007,-0.0002,0.0053,-0.002,0.1097,0
8152688,1,-0.0048,0.0007,-0.0002,-0.0037,0.0076,0.1024,0
8152854,1,-0.0048,0.0007,-0.0002,0.0009,0.0057,0.0905,0
8153021,1,-0.0048,0.0007,-0.0002,0.0166,-0.0071,0.1022,0
8153188,1,-0.0048,0.0007,-0.0002,0.0101,-0.0039,0.1079,0
8153354,1,-0.0048,0.0007,-0.0002,0.0126,-0.0044,0.0893,0
8153521,1,-0.0048,0.0007,-0.0002,0.0035,-0.0045,0.0745,0
8153688,1,-0.0048,0.0007,-0.0002,0.0114,-0.0061,0.0923,0
8153854,1,-0.0048,0.0007,-0.0002,0.0093,0.0003,0.0938,0
8154021,1,-0.0048,0.0006,-0.0003,0.0104,0.0087,0.076,0
8154188,1,-0.0048,0.0006,-0.0003,0.0112,0.0007,0.083,0
8154354,1,-0.0048,0.0006,-0.0003,0.0248,0.0069,0.0963,0
8154521,1,-0.0048,0.0006,-0.0003,0.0087,-0.0037,0.1186,0
8154688,1,-0.0048,0.0006,-0.0003,0.0116,-0.0069,0.0935,0
8154854,1,-0.0048,0.0006,-0.0003,0.0063,-0.0036,0.1021,0
8155021,1,-0.0048,0.0006,-0.0003,0.0029,-0.0057,0.096,0
8155188,1,-0.0048,0.0006,-0.0003,-0.0113,0.0066,0.0928,0
8155354,1,-0.0048,0.0006,-0.0003,0.0115,-0.0033,0.1156,0
8155521,1,-0.0048,0.0006,-0.0003,0.0097,-0.0035,0.0859,0
8155688,1,-0.0048,0.0006,-0.0003,-0.0003,-0.0067,0.1107,0
8155854,1,-0.0048,0.0006,-0.0003,0.007,-0.0038,0.091,0
8156021,1,-0.0048,0.0006,-0.0003,0.0164,0.0022,0.0933,0
8156188,1,-0.0048,0.0006,-0.0003,0.0092,0.0032,0.0835,0
8156354,1,-0.0048,0.0006,-0.0003,-0.0077,0,0.0937,0
8156521,1,-0.0048,0.0006,-0.0003,-0.0025,-0.0047,0.1107,0
8156688,1,-0.0048,0.0006,-0.0003,-0.006,-0.0086,0.1047,0
8156854,1,-0.0048,0.0006,-0.0003,0.019,-0.0114,0.0834,0
8157021,1,-0.0048,0.0006,-0.0003,0.0151,-0.0016,0.0826,0
8157188,1,-0.0048,0.0006,-0.0003,0.002,-0.0049,0.0927,0
8157354,1,-0.0048,0.0006,-0.0003,0.0007,-0.0119,0.1023,0
8157521,1,-0.0048,0.0006,-0.0003,-0.0019,-0.0104,0.0878,0
8157688,1,-0.0048,0.0006,-0.0003,0.0037,-0.0043,0.1063,0
8157854,1,-0.0048,0.0006,-0.0003,0.0114,0.0024,0.0879,0
8158021,1,-0.0048,0.0006,-0.0003,0.0088,-0.0046,0.0924,0
8158188,1,-0.0048,0.0006,-0.0003,-0.0001,0.0055,0.093,0
8158354,1,-0.0048,0.0006,-0.0003,0.0076,0.0031,0.1077,0
8158521,1,-0.0048,0.0006,-0.0003,0.0072,0.0094,0.0916,0
8158688,1,-0.0048,0.0006,-0.0003,0.023,-0.0199,0.0923,0
8158854,1,-0.0048,0.0006,-0.0003,-0.0082,-0.0047,0.1021,0
8159021,1,-0.0048,0.0006,-0.0003,0.0011,0.0005,0.0889,0
8159188,1,-0.0048,0.0006,-0.0003,-0.0032,-0.0016,0.0933,0
8159354,1,-0.0048,0.0006,-0.0003,0.0029,0.0206,0.1,0
8159521,1,-0.0048,0.0006,-0.0003,0.0091,0.0038,0.0811,0
8159688,1,-0.0048,0.0006,-0.0003,0.0065,-0.0146,0.0945,0
8159854,1,-0.0048,0.0006,-0.0003,0.0062,-0.0079,0.0841,0
8160021,1,-0.0048,0.0006,-0.0003,0.0015,-0.0024,0.0707,0
8160188,1,-0.0048,0.0006,-0.0003,0.0007,-0.0014,0.0902,0
8160354,1,-0.0048,0.0006,-0.0003,-0.0017,-0.0059,0.1016,0
8160521,1,-0.0048,0.0006,-0.0003,0.0008,0.0085,0.0886,0
8160688,1,-0.0048,0.0006,-0.0003,-0.0027,0.012,0.0921,0
8160854,1,-0.0048,0.0006,-0.0003,0.0018,0.0098,0.0993,0
8161021,1,-0.0048,0.0006,-0.0003,0.011,0.0039,0.1024,0
8161188,1,-0.0048,0.0006,-0.0003,0.0159,0.0039,0.1046,0
8161354,1,-0.0048,0.0006,-0.0003,-0.0034,-0.0058,0.1023,0
8161521,1,-0.0048,0.0006,-0.0003,0.0031,0.0062,0.0752,0
8161688,1,-0.0048,0.0006,-0.0004,0.0016,0.0005,0.0959,0
8161854,1,-0.0048,0.0006,-0.0004,-0.0066,-0.0054,0.1015,0
8162021,1,-0.0048,0.0006,-0.0004,-0.0004,0.0134,0.102,0
8162188,1,-0.0048,0.0006,-0.0004,0.011,0.005,0.1625,0
8162354,1,-0.0048,0.0006,-0.0004,0.0354,-0.0073,-0.0424,0
8162521,1,-0.0048,0.0006,-0.0004,-0.0007,-0.0097,0.1732,0
8162688,1,-0.0048,0.0006,-0.0004,-0.0109,0.0165,0.1231,0
8162854,1,-0.0048,0.0006,-0.0004,0.0044,-0.0126,0.0008,0
8163021,1,-0.0048,0.0005,-0.0004,-0.0098,-0.0169,0.1717,0
8163188,1,-0.0048,0.0005,-0.0004,0.0095,-0.0017,0.0787,0
8163355,1,-0.0048,0.0005,-0.0004,0.019,0.0071,0.0698,0
8163521,1,-0.0048,0.0005,-0.0004,0.0143,-0.0003,0.1871,0
8163688,1,-0.0048,0.0005,-0.0004,0.0319,0.0482,0.012,0
8163855,1,-0.0048,0.0005,-0.0004,0.005,-0.0024,0.1363,0
8164021,1,-0.0048,0.0006,-0.0004,-0.0127,-0.0119,0.1004,0
8164188,1,-0.0048,0.0006,-0.0004,-0.0059,-0.0404,0.0323,0
8164355,1,-0.0048,0.0006,-0.0004,-0.0094,-0.021,0.1466,0
8164521,1,-0.0048,0.0006,-0.0004,-0.0026,-0.0146,0.0421,0
8164688,1,-0.0048,0.0005,-0.0004,0.0052,-0.0077,0.0966,0
8164855,1,-0.0048,0.0006,-0.0004,0.0099,0.0155,0.1933,0
8165021,1,-0.0048,0.0006,-0.0004,0.0392,0.0223,0.053,0
8165188,1,-0.0048,0.0006,-0.0004,-0.0085,-0.0375,0.0293,0
8165355,1,-0.0048,0.0006,-0.0004,-0.0402,-0.0004,0.2166,0
8165521,1,-0.0048,0.0006,-0.0004,0.0252,0.0305,0.0804,0
8165688,1,-0.0048,0.0006,-0.0004,0.0438,-0.0121,0.024,0
8165855,1,-0.0048,0.0006,-0.0004,0.0048,0.0208,0.2533,0
8166021,1,-0.0048,0.0006,-0.0004,0.0331,0.0265,0.0303,0
8166188,1,-0.0048,0.0006,-0.0004,-0.0168,-0.0343,0.0639,0
8166355,1,-0.0048,0.0006,-0.0004,-0.027,-0.0258,0.1296,0
8166521,1,-0.0048,0.0006,-0.0004,-0.0016,0.007,-0.0459,0
8166688,1,-0.0048,0.0006,-0.0004,-0.0059,-0.0093,0.1928,0
8166855,1,-0.0048,0.0006,-0.0004,0.0314,-0.0265,0.0587,0
8167021,1,-0.0048,0.0005,-0.0004,0.0642,0.0403,0.0863,0
8167188,1,-0.0048,0.0006,-0.0004,0.0114,0.0154,0.2171,0
8167355,1,-0.0048,0.0006,-0.0004,-0.0289,-0.0332,0.0301,0
8167521,1,-0.0048,0.0006,-0.0004,-0.0169,0.0297,0.04,0
8167688,1,-0.0048,0.0006,-0.0004,-0.007,0.0173,0.1665,0
8167855,1,-0.0048,0.0006,-0.0004,0.0176,-0.0369,0.0091,0
8168021,1,-0.0048,0.0006,-0.0004,0.0308,0.0014,0.1177,0
8168188,1,-0.0048,0.0006,-0.0004,0.0181,0.0272,0.1657,0
8168355,1,-0.0048,0.0006,-0.0004,0.0085,-0.0044,-0.0042,0
8168521,1,-0.0048,0.0006,-0.0004,-0.0234,-0.0004,0.1354,0
8168688,1,-0.0048,0.0006,-0.0004,-0.0122,0.0133,0.0936,0
8168855,1,-0.0048,0.0006,-0.0004,0.0017,-0.03,-0.0064,0
8169021,1,-0.0048,0.0006,-0.0003,-0.0068,-0.0119,0.16,0
8169188,1,-0.0048,0.0005,-0.0004,0.0324,0.0322,0.1022,0
8169355,1,-0.0048,0.0005,-0.0004,0.0111,0.0118,0.1051,0
8169521,1,-0.0049,0.0005,-0.0004,-0.0109,0.0122,0.1302,0
8169688,1,-0.0049,0.0006,-0.0004,0.0014,0.0066,0.0533,0
8169855,1,-0.0048,0.0005,-0.0004,-0.0042,-0.0103,0.0994,0
8170021,1,-0.0048,0.0005,-0.0004,-0.014,-0.0311,0.0814,0
8170188,1,-0.0048,0.0005,-0.0004,0.0184,0.0052,0.0788,0
8170355,1,-0.0048,0.0005,-0.0004,0.0049,0.0173,0.1456,0
8170521,1,-0.0049,0.0005,-0.0004,0.0129,-0.0056,0.0779,0
8170688,1,-0.0049,0.0005,-0.0004,0.0075,0.0124,0.0901,0
8170855,1,-0.0048,0.0005,-0.0004,-0.0106,-0.0137,0.1261,0
8171021,1,-0.0049,0.0005,-0.0003,-0.0087,-0.0302,0.0526,0
8171188,1,-0.0049,0.0005,-0.0003,-0.0152,-0.0061,0.0871,0
8171355,1,-0.0048,0.0005,-0.0003,0.0069,0.0096,0.1267,0
8171521,1,-0.0048,0.0005,-0.0003,0.0093,-0.0032,0.0695,0
8171688,1,-0.0048,0.0005,-0.0003,-0.0004,0.0255,0.1403,0
8171855,1,-0.0048,0.0005,-0.0003,-0.0038,0.0277,0.1015,0
8172021,1,-0.0048,0.0005,-0.0003,-0.0115,-0.0171,0.0639,0
8172188,1,-0.0048,0.0005,-0.0003,-0.0164,-0.0234,0.0866,0
8172355,1,-0.0048,0.0005,-0.0003,-0.0072,0.0025,0.0758,0
8172521,1,-0.0048,0.0004,-0.0003,0.0052,0.0098,0.0834,0
8172688,1,-0.0048,0.0004,-0.0003,0.0065,0.013,0.1249,0
8172855,1,-0.0048,0.0005,-0.0003,0.0054,0.0105,0.0943,0
8173021,1,-0.0048,0.0005,-0.0003,-0.0032,0.0016,0.1024,0
8173188,1,-0.0048,0.0004,-0.0003,-0.0152,-0.0037,0.0832,0
8173355,1,-0.0048,0.0005,-0.0003,-0.0115,-0.0104,0.0883,0
8173521,1,-0.0048,0.0004,-0.0003,-0.0011,0.0048,0.0728,0
8173688,1,-0.0048,0.0004,-0.0003,0.0155,0.0054,0.0852,0
8173855,1,-0.0048,0.0004,-0.0003,0.0199,0.0216,0.1089,0
8174021,1,-0.0048,0.0007,-0.0003,0.0158,0.0035,0.0885,0
8174188,1,-0.0048,0.0007,-0.0003,0.011,0.0044,0.1029,0
8174355,1,-0.0048,0.0007,-0.0003,-0.011,-0.0339,0.072,0
8174521,1,-0.0048,0.0007,-0.0003,-0.0038,-0.0008,0.0604,0
8174688,1,-0.0048,0.0007,-0.0003,0.0168,0.0021,0.0857,0
8174855,1,-0.0048,0.0007,-0.0003,0.0144,-0.0094,0.1176,0
8175021,1,-0.0048,0.0007,-0.0003,0.0236,0.0222,0.1098,0
8175188,1,-0.0048,0.0007,-0.0003,0.0238,0.0101,0.1663,0
8175355,1,-0.0048,0.0007,-0.0003,0.0206,-0.0062,0.0351,0
8175521,1,-0.0048,0.0007,-0.0003,-0.0033,-0.0155,0.1003,0
8175688,1,-0.0048,0.0007,-0.0003,-0.015,-0.0024,0.1361,0
8175855,1,-0.0048,0.0007,-0.0003,-0.0004,0.004,0.0046,0
8176021,1,-0.0048,0.0007,-0.0003,-0.0021,0.0039,0.1278,0
8176188,1,-0.0048,0.0007,-0.0003,0.0168,0.0008,0.101,0
8176355,1,-0.0048,0.0007,-0.0003,0.0167,-0.0106,0.0688,0
8176521,1,-0.0048,0.0007,-0.0003,0.0096,0.0054,0.1825,0
8176688,1,-0.0048,0.0007,-0.0003,0.0027,0.0054,0.0462,0
8176855,1,-0.0048,0.0007,-0.0003,-0.0027,-0.0055,0.0824,0
8177021,1,-0.0048,0.0007,-0.0003,-0.0103,0.0056,0.1186,0
8177188,1,-0.0048,0.0007,-0.0003,0.0176,-0.0023,0.0672,0
8177355,1,-0.0048,0.0007,-0.0003,0.0128,0.0023,0.1062,0
8177521,1,-0.0048,0.0007,-0.0003,0.0171,-0.0005,0.1213,0
8177688,1,-0.0048,0.0007,-0.0003,0.0137,-0.0054,0.0657,0
8177855,1,-0.0048,0.0007,-0.0003,-0.0048,0.0007,0.1383,0
8178021,1,-0.0048,0.0007,-0.0003,-0.0053,0.0163,0.0786,0
8178188,1,-0.0048,0.0007,-0.0003,0.0168,0.0039,0.0624,0
8178355,1,-0.0048,0.0007,-0.0003,0.0055,-0.0175,0.1276,0
8178521,1,-0.0048,0.0007,-0.0003,0.0061,-0.0084,0.0877,0
8178688,1,-0.0048,0.0007,-0.0003,0.0082,-0.0095,0.114,0
8178855,1,-0.0048,0.0007,-0.0003,0.0114,0.0027,0.137,0
8179021,1,-0.0048,0.0007,-0.0003,-0.0054,0.0056,0.0787,0
8179188,1,-0.0048,0.0007,-0.0003,-0.0199,0.0004,0.0927,0
8179355,1,-0.0048,0.0007,-0.0003,-0.0103,0.0071,0.1138,0
8179521,1,-0.0048,0.0007,-0.0003,0.0127,0.0077,0.0786,0
8179688,1,-0.0048,0.0007,-0.0003,0.0127,-0.0026,0.1273,0
8179855,1,-0.0048,0.0007,-0.0003,0.0201,0.0034,0.0723,0
8180022,1,-0.0048,0.0007,-0.0003,-0.0036,0.0038,0.1029,0
8180188,1,-0.0048,0.0007,-0.0003,-0.0136,-0.0092,0.1048,0
8180355,1,-0.0048,0.0007,-0.0003,0.0058,-0.0018,0.0577,0
8180522,1,-0.0048,0.0007,-0.0003,-0.0111,-0.0024,0.0871,0
8180688,1,-0.0048,0.0007,-0.0003,0.0124,-0.0028,0.1119,0
8180855,1,-0.0048,0.0007,-0.0003,0.0244,0.0014,0.0886,0
8181022,1,-0.0048,0.0007,-0.0003,0.0227,0.0057,0.1083,0
8181188,1,-0.0048,0.0007,-0.0003,0.009,0.0099,0.096,0
8181355,1,-0.0048,0.0007,-0.0003,-0.0014,0.0041,0.0936,0
8181522,1,-0.0048,0.0007,-0.0003,-0.0104,-0.0156,0.1045,0
8181688,1,-0.0048,0.0007,-0.0003,-0.0086,-0.0111,0.0956,0
8181855,1,-0.0048,0.0007,-0.0003,0.0213,0.0032,0.0654,0
8182022,1,-0.0048,0.0007,-0.0003,0.0091,0.0022,0.1144,0
8182188,1,-0.0048,0.0007,-0.0003,0.0159,0.0086,0.1011,0
8182355,1,-0.0048,0.0007,-0.0003,0.0027,0.0125,0.0795,0
8182522,1,-0.0048,0.0007,-0.0003,0.0077,-0.0036,0.0898,0
8182688,1,-0.0048,0.0007,-0.0003,0.0081,-0.009,0.0761,0
8182855,1,-0.0048,0.0007,-0.0003,0.0026,-0.0042,0.0863,0
8183022,1,-0.0048,0.0007,-0.0003,0.0151,-0.0102,0.0885,0
8183188,1,-0.0048,0.0007,-0.0003,0.0223,0.0054,0.0732,0
8183355,1,-0.0048,0.0007,-0.0003,0.0009,0.0134,0.0997,0
8183522,1,-0.0048,0.0007,-0.0003,0.0094,-0.001,0.0749,0
8183688,1,-0.0048,0.0007,-0.0003,-0.0103,-0.0123,0.0812,0
8183855,1,-0.0048,0.0007,-0.0003,-0.0022,-0.0062,0.1136,0
8184022,1,-0.0048,0.0007,-0.0003,-0.013,0.0058,0.1006,0
8184188,1,-0.0048,0.0007,-0.0003,0.0047,0.0029,0.1142,0
8184355,1,-0.0048,0.0007,-0.0003,0.0166,0.013,0.0983,0
8184522,1,-0.0048,0.0007,-0.0003,0.0092,0.0121,0.0864,0
8184688,1,-0.0048,0.0007,-0.0003,0.0037,0.0165,0.0845,0
8184855,1,-0.0048,0.0007,-0.0003,-0.0056,-0.0099,0.1052,0
8185022,1,-0.0048,0.0007,-0.0003,0.0042,-0.0074,0.0928,0
8185188,1,-0.0048,0.0007,-0.0003,0.0022,-0.0152,0.0992,0
8185355,1,-0.0048,0.0007,-0.0003,0.0046,0.0064,0.0884,0
8185522,1,-0.0048,0.0007,-0.0003,0.0046,0.0036,0.1047,0
8185688,1,-0.0048,0.0007,-0.0003,0.0182,0.0148,0.1002,0
8185855,1,-0.0048,0.0007,-0.0003,0.0117,-0.0082,0.1071,0
8186022,1,-0.0048,0.0007,-0.0003,0.0077,-0.0059,0.083,0
8186188,1,-0.0047,0.0007,-0.0003,0.001,-0.0049,0.0963,0
8186355,1,-0.0047,0.0007,-0.0003,0.0018,-0.0052,0.101,0
8186522,1,-0.0047,0.0007,-0.0003,0.007,0.0178,0.1094,0
8186688,1,-0.0047,0.0007,-0.0003,0.008,-0.0093,0.0855,0
8186855,1,-0.0047,0.0007,-0.0003,-0.0027,0.0008,0.1027,0
8187022,1,-0.0047,0.0007,-0.0003,0.0136,0.0011,0.0598,0
8187188,1,-0.0047,0.0007,-0.0003,0.0035,0.0001,0.0783,0
8187355,1,-0.0047,0.0007,-0.0003,0.0033,0.0078,0.0953,0
8187522,1,-0.0047,0.0007,-0.0003,0.0099,0.0046,0.0785,0
8187688,1,-0.0047,0.0007,-0.0003,0.0116,0.0026,0.0974,0
8187855,1,-0.0047,0.0007,-0.0003,0.0126,-0.007,0.0879,0
8188022,1,-0.0047,0.0007,-0.0003,0.0137,-0.0071,0.0903,0
8188188,1,-0.0047,0.0007,-0.0003,0.0053,-0.0117,0.0916,0
8188355,1,-0.0047,0.0007,-0.0003,-0.0136,-0.013,0.0836,0
8188522,1,-0.0047,0.0007,-0.0003,-0.0099,-0.0058,0.0903,0
8188688,1,-0.0047,0.0007,-0.0003,-0.003,-0.0043,0.1144,0
8188855,1,-0.0047,0.0007,-0.0003,0.0111,-0.0097,0.1102,0
8189022,1,-0.0047,0.0007,-0.0003,-0.006,-0.0033,0.1092,0
8189188,1,-0.0048,0.0007,-0.0003,0.0004,0.0007,0.0899,0
8189355,1,-0.0047,0.0007,-0.0003,-0.003,-0.0094,0.0856,0
8189522,1,-0.0047,0.0007,-0.0003,0.0079,-0.0005,0.108,0
8189688,1,-0.0047,0.0007,-0.0003,-0.0048,-0.0016,0.0894,0
8189855,1,-0.0047,0.0007,-0.0003,0.0033,0.0022,0.0966,0
8190022,1,-0.0047,0.0007,-0.0003,0.0055,-0.0087,0.0987,0
8190188,1,-0.0047,0.0007,-0.0003,0.0099,-0.014,0.0802,0
8190355,1,-0.0048,0.0007,-0.0003,0.0016,-0.003,0.0984,0
8190522,1,-0.0048,0.0007,-0.0003,0.0119,0.0033,0.1001,0
8190688,1,-0.0048,0.0007,-0.0003,0.0087,0.0014,0.0757,0
8190855,1,-0.0047,0.0007,-0.0003,-0.0012,-0.0046,0.0737,0
8191022,1,-0.0047,0.0007,-0.0003,-0.0123,-0.017,0.1004,0
8191188,1,-0.0047,0.0007,-0.0003,0.0046,-0.0031,0.0997,0
8191355,1,-0.0047,0.0007,-0.0003,0.0098,-0.0151,0.0853,0
8191522,1,-0.0047,0.0007,-0.0003,0.0026,-0.0068,0.1086,0
8191688,1,-0.0047,0.0007,-0.0003,0.0118,-0.0015,0.0856,0
8191855,1,-0.0047,0.0007,-0.0003,-0.0019,-0.007,0.074,0
8192022,1,-0.0047,0.0007,-0.0003,-0.0027,0.0148,0.0669,0
8192188,1,-0.0047,0.0007,-0.0003,0.003,-0.0043,0.1054,0
8192355,1,-0.0047,0.0007,-0.0003,0.0136,0.0028,0.0895,0
8192522,1,-0.0047,0.0007,-0.0003,0.0098,0.0035,0.1014,0
8192688,1,-0.0047,0.0007,-0.0003,0.0196,0.0159,0.0912,0
8192855,1,-0.0047,0.0007,-0.0003,-0.0034,-0.0014,0.0964,0
8193022,1,-0.0047,0.0007,-0.0003,0.0005,-0.0144,0.086,0
8193188,1,-0.0047,0.0007,-0.0003,0.0007,-0.0117,0.0842,0
8193355,1,-0.0047,0.0007,-0.0003,0.0156,-0.0035,0.087,0
8193522,1,-0.0047,0.0007,-0.0003,0.012,-0.017,0.0919,0
8193688,1,-0.0047,0.0007,-0.0003,0.0063,-0.0111,0.1031,0
8193855,1,-0.0047,0.0007,-0.0003,0.0103,0.0068,0.0898,0
8194022,1,-0.0048,0.0007,-0.0004,0.0102,0.0063,0.0854,0
8194188,1,-0.0048,0.0007,-0.0004,0.0171,-0.0074,0.105,0
8194355,1,-0.0048,0.0007,-0.0004,0.0017,-0.007,0.0886,0
8194522,1,-0.0048,0.0007,-0.0004,0.001,-0.005,0.0945,0
8194688,1,-0.0048,0.0007,-0.0004,0.0194,0.0084,0.1083,0
8194855,1,-0.0048,0.0007,-0.0004,0.0089,0.0045,0.0974,0
8195022,1,-0.0048,0.0007,-0.0004,-0.0001,0.0062,0.1035,0
8195188,1,-0.0048,0.0007,-0.0004,0.0128,-0.0076,0.0989,0
8195355,1,-0.0048,0.0007,-0.0004,0.0091,-0.0056,0.0842,0
8195522,1,-0.0048,0.0007,-0.0004,0.0135,-0.0052,0.0865,0
8195688,1,-0.0048,0.0007,-0.0004,0.0041,0.0041,0.091,0
8195855,1,-0.0048,0.0007,-0.0004,0.0124,0.0049,0.1067,0
8196022,1,-0.0048,0.0007,-0.0004,0.0111,0.0015,0.0869,0
8196188,1,-0.0048,0.0007,-0.0004,0.0157,-0.0035,0.1131,0
8196355,1,-0.0048,0.0007,-0.0004,0.0052,0.001,0.0951,0
8196522,1,-0.0048,0.0007,-0.0004,0.0004,-0.0045,0.1043,0
8196689,1,-0.0048,0.0007,-0.0004,0.0157,0.0013,0.0766,0
8196855,1,-0.0048,0.0007,-0.0004,-0.0006,0.0026,0.0804,0
8197022,1,-0.0048,0.0007,-0.0004,0.0116,-0.0051,0.0959,0
8197189,1,-0.0048,0.0007,-0.0004,0.0114,-0.0001,0.0996,0
8197355,1,-0.0048,0.0007,-0.0004,0.0043,-0.016,0.0898,0
8197522,1,-0.0048,0.0007,-0.0004,0.0075,-0.0051,0.1027,0
8197689,1,-0.0048,0.0007,-0.0004,0.0096,-0.0121,0.1052,0
8197855,1,-0.0048,0.0007,-0.0004,0.0149,-0.0005,0.1147,0
8198022,1,-0.0048,0.0007,-0.0004,0.0048,-0.0061,0.0896,0
8198189,1,-0.0048,0.0007,-0.0004,0.0155,-0.005,0.0983,0
8198355,1,-0.0048,0.0007,-0.0004,0.0119,-0.0079,0.1125,0
8198522,1,-0.0048,0.0007,-0.0004,0.0094,-0.0022,0.0794,0
8198689,1,-0.0048,0.0007,-0.0004,0.0141,-0.0092,0.087,0
8198855,1,-0.0048,0.0007,-0.0004,0.0091,-0.0067,0.1039,0
8199022,1,-0.0048,0.0007,-0.0004,0.0123,0.0035,0.1065,0
8199189,1,-0.0048,0.0007,-0.0004,0.0097,0.0008,0.1045,0
8199355,1,-0.0048,0.0007,-0.0004,-0.0034,-0.0098,0.0962,0
8199522,1,-0.0048,0.0007,-0.0004,0.0198,-0.0111,0.1042,0
8199689,1,-0.0048,0.0007,-0.0004,0.0101,0.0083,0.0904,0
8199855,1,-0.0048,0.0007,-0.0004,0.0058,-0.0047,0.0938,0
8200022,1,-0.0048,0.0007,-0.0004,-0.0039,-0.0078,0.0944,0
8200189,1,-0.0048,0.0007,-0.0004,0.0114,-0.0007,0.1062,0
8200355,1,-0.0048,0.0007,-0.0004,0.0062,-0.004,0.0785,0
8200522,1,-0.0048,0.0007,-0.0004,0.0095,-0.0012,0.1029,0
8200689,1,-0.0048,0.0007,-0.0004,0.0177,0.0079,0.0979,0
8200855,1,-0.0048,0.0007,-0.0004,0.0099,-0.0078,0.0834,0
8201022,1,-0.0048,0.0007,-0.0004,-0.0087,-0.0014,0.104,0
8201189,1,-0.0048,0.0007,-0.0004,0.0012,-0.0125,0.1251,0
8201355,1,-0.0048,0.0007,-0.0004,0.0067,0.0029,0.0839,0
8201522,1,-0.0048,0.0007,-0.0004,0.0086,-0.0104,0.0739,0
8201689,1,-0.0048,0.0007,-0.0004,0.0229,-0.0011,0.0765,0
8201855,1,-0.0048,0.0007,-0.0004,0.0054,-0.0053,0.0922,0
8202022,1,-0.0048,0.0007,-0.0004,0.0265,-0.01,0.0902,0
8202189,1,-0.0048,0.0007,-0.0004,0.0149,0.0106,0.0872,0
8202355,1,-0.0048,0.0007,-0.0004,0.0028,0.0095,0.0911,0
8202522,1,-0.0048,0.0006,-0.0004,0.0124,0.0015,0.0935,0
8202689,1,-0.0048,0.0007,-0.0004,0.008,-0.0099,0.0942,0
8202855,1,-0.0048,0.0007,-0.0004,0.0118,0.0082,0.0967,0
8203022,1,-0.0048,0.0007,-0.0004,0.0029,-0.0006,0.106,0
8203189,1,-0.0048,0.0006,-0.0004,0.0102,0.0007,0.0935,0
8203355,1,-0.0048,0.0007,-0.0004,0.0013,-0.0087,0.0831,0
8203522,1,-0.0048,0.0007,-0.0004,0.0143,-0.0076,0.0768,0
8203689,1,-0.0048,0.0007,-0.0004,0.0039,0.0031,0.0795,0
8203855,1,-0.0048,0.0007,-0.0004,0.023,-0.0051,0.0978,0
8204022,1,-0.0048,0.0007,-0.0004,0.0286,-0.0172,0.0829,0
8204189,1,-0.0048,0.0007,-0.0004,0.0165,-0.0093,0.0951,0
8204355,1,-0.0048,0.0007,-0.0004,0.0131,0.0127,0.0962,0
8204522,1,-0.0048,0.0007,-0.0004,0.0098,-0.0068,0.0978,0
8204689,1,-0.0048,0.0007,-0.0004,0.0113,0.0005,0.0904,0
8204855,1,-0.0048,0.0007,-0.0004,0.0073,0.0003,0.0766,0
8205022,1,-0.0048,0.0007,-0.0004,0.0121,0.0018,0.0963,0
8205189,1,-0.0048,0.0007,-0.0004,0.0062,-0.0049,0.0889,0
8205355,1,-0.0048,0.0007,-0.0004,0.0044,-0.01,0.0895,0
8205522,1,-0.0048,0.0007,-0.0004,0.0133,-0.0043,0.0878,0
8205689,1,-0.0048,0.0007,-0.0004,0.0004,-0.0016,0.0799,0
8205855,1,-0.0048,0.0007,-0.0004,0.0023,0.0131,0.0958,0
8206022,1,-0.0048,0.0007,-0.0004,0.0128,-0.0008,0.0773,0
8206189,1,-0.0048,0.0007,-0.0004,0.014,0.0154,0.0887,0
8206355,1,-0.0048,0.0007,-0.0004,0.0077,-0.0032,0.0787,0
8206522,1,-0.0048,0.0006,-0.0004,0.004,0.0112,0.1037,0
8206689,1,-0.0048,0.0007,-0.0004,0.0039,0.0053,0.1041,0
8206855,1,-0.0048,0.0007,-0.0004,0.0086,-0.0051,0.0875,0
8207022,1,-0.0048,0.0007,-0.0004,0.0178,0.0086,0.0641,0
8207189,1,-0.0048,0.0007,-0.0004,0.0084,-0.007,0.0894,0
8207355,1,-0.0048,0.0007,-0.0004,0.0053,0.0031,0.0923,0
8207522,1,-0.0048,0.0007,-0.0004,0.0122,-0.0043,0.098,0
8207689,1,-0.0048,0.0007,-0.0004,0.0001,0.005,0.1037,0
8207855,1,-0.0048,0.0007,-0.0004,0.0189,0.0054,0.1005,0
8208022,1,-0.0048,0.0007,-0.0004,-0.0018,-0.0053,0.0928,0
8208189,1,-0.0048,0.0007,-0.0004,0.0017,-0.0072,0.0748,0
8208355,1,-0.0048,0.0007,-0.0004,0.0119,-0.0004,0.0789,0
8208522,1,-0.0048,0.0007,-0.0004,0.0084,-0.0001,0.0772,0
8208689,1,-0.0048,0.0007,-0.0004,0.0182,-0.0045,0.1001,0
8208855,1,-0.0048,0.0007,-0.0004,0.008,-0.0064,0.0787,0
8209022,1,-0.0048,0.0007,-0.0004,0.0015,0.0003,0.0902,0
8209189,1,-0.0048,0.0007,-0.0004,0.0066,-0.0063,0.0942,0
8209355,1,-0.0048,0.0007,-0.0004,-0.0024,-0.0066,0.0879,0
8209522,1,-0.0048,0.0007,-0.0004,0.0217,-0.0041,0.0971,0
8209689,1,-0.0048,0.0007,-0.0004,0.0064,-0.0139,0.1073,0
8209855,1,-0.0048,0.0007,-0.0004,0.0051,-0.0037,0.1211,0
8210022,1,-0.0048,0.0007,-0.0004,0.009,-0.0075,0.1033,0
8210189,1,-0.0048,0.0007,-0.0004,0.015,-0.0026,0.0998,0
8210355,1,-0.0048,0.0007,-0.0004,0.011,-0.0035,0.0912,0
8210522,1,-0.0048,0.0007,-0.0004,-0.0063,-0.0107,0.1143,0
8210689,1,-0.0048,0.0007,-0.0004,-0.0019,0.0046,0.1055,0
8210855,1,-0.0048,0.0007,-0.0004,0.0028,0.0078,0.0882,0
8211022,1,-0.0048,0.0007,-0.0004,0.0056,0.0029,0.0839,0
8211189,1,-0.0048,0.0007,-0.0004,0.0164,-0.0016,0.0984,0
8211355,1,-0.0048,0.0007,-0.0004,0.0158,-0.002,0.1038,0
8211522,1,-0.0048,0.0007,-0.0004,-0.0004,0.0112,0.0903,0
8211689,1,-0.0048,0.0007,-0.0004,-0.0044,0.0063,0.0858,0
8211855,1,-0.0048,0.0007,-0.0004,0.0007,-0.0011,0.0972,0
8212022,1,-0.0048,0.0007,-0.0004,0.0149,0.002,0.0854,0
8212189,1,-0.0048,0.0007,-0.0004,0.0062,-0.0032,0.0927,0
8212355,1,-0.0048,0.0007,-0.0004,0.0221,-0.002,0.0914,0
8212522,1,-0.0048,0.0007,-0.0004,0.0044,0.0116,0.1,0
8212689,1,-0.0048,0.0007,-0.0004,0.0047,0.0051,0.0969,0
8212855,1,-0.0049,0.0007,-0.0004,0.0055,0.0133,0.1193,0
8213022,1,-0.0049,0.0007,-0.0004,0.0115,-0.0044,0.0811,0
8213189,1,-0.0048,0.0007,-0.0004,0.0076,0.0072,0.0608,0
8213356,1,-0.0048,0.0007,-0.0004,0.0041,-0.0005,0.1075,0
8213522,1,-0.0048,0.0006,-0.0004,0.0045,0.0076,0.1005,0
8213689,1,-0.0048,0.0006,-0.0004,0.0156,-0.0038,0.0811,0
8213856,1,-0.0048,0.0006,-0.0004,0,0.0008,0.095,0
8214022,1,-0.0048,0.0007,-0.0004,0.0215,0.0024,0.0662,0
8214189,1,-0.0048,0.0007,-0.0004,-0.0051,0.0009,0.0618,0
8214356,1,-0.0048,0.0007,-0.0004,-0.0045,-0.0029,0.1129,0
8214522,1,-0.0048,0.0007,-0.0004,0.0088,-0.0019,0.055,0
8214689,1,-0.0048,0.0007,-0.0004,0.0159,-0.0021,0.1004,0
8214856,1,-0.0048,0.0007,-0.0004,0.0112,-0.0059,0.1103,0
8215022,1,-0.0048,0.0007,-0.0004,0.0107,0.0055,0.0881,0
8215189,1,-0.0048,0.0007,-0.0004,0.0093,-0.0067,0.1022,0
8215356,1,-0.0048,0.0007,-0.0004,0.0116,-0.002,0.1038,0
8215522,1,-0.0048,0.0007,-0.0004,0.0013,-0.0012,0.0906,0
8215689,1,-0.0048,0.0007,-0.0004,-0.014,0.0026,0.1321,0
8215856,1,-0.0048,0.0007,-0.0004,0.0086,-0.0021,0.0768,0
8216022,1,-0.0048,0.0007,-0.0004,0.0065,0.008,0.1064,0
8216189,1,-0.0048,0.0007,-0.0004,0.0075,0.0029,0.1185,0
8216356,1,-0.0048,0.0007,-0.0004,0.0047,0.0055,0.0853,0
8216522,1,-0.0048,0.0007,-0.0004,0.0017,-0.0016,0.0908,0
8216689,1,-0.0048,0.0007,-0.0004,-0.0049,0.0102,0.1013,0
8216856,1,-0.0048,0.0007,-0.0004,0.0027,0.0057,0.0791,0
8217022,1,-0.0048,0.0007,-0.0004,0.0108,-0.0099,0.1225,0
8217189,1,-0.0048,0.0007,-0.0004,0.0141,0.0082,0.084,0
8217356,1,-0.0048,0.0007,-0.0004,0.0098,0.0125,0.1129,0
8217522,1,-0.0048,0.0007,-0.0004,0.0055,0.0176,0.0913,0
8217689,1,-0.0048,0.0007,-0.0004,0.0073,-0.0034,0.0828,0
8217856,1,-0.0048,0.0007,-0.0004,-0.0042,-0.0117,0.082,0
8218022,1,-0.0048,0.0007,-0.0004,0.0211,-0.0024,0.0968,0
8218189,1,-0.0048,0.0007,-0.0004,-0.0059,-0.0008,0.0853,0
8218356,1,-0.0048,0.0007,-0.0004,0.0161,0.0081,0.1069,0
8218522,1,-0.0048,0.0007,-0.0004,0.0086,-0.0064,0.0882,0
8218689,1,-0.0048,0.0007,-0.0004,-0.004,-0.0039,0.077,0
8218856,1,-0.0049,0.0007,-0.0004,0.022,0.0016,0.0783,0
8219022,1,-0.0048,0.0007,-0.0004,-0.0109,-0.0022,0.0785,0
8219189,1,-0.0048,0.0007,-0.0004,-0.008,-0.0065,0.0831,0
8219356,1,-0.0048,0.0007,-0.0004,-0.0115,0.0003,0.1047,0
8219522,1,-0.0048,0.0007,-0.0004,-0.003,0.0036,0.0696,0
8219689,1,-0.0049,0.0007,-0.0004,0.0123,0.0031,0.106,0
8219856,1,-0.0048,0.0007,-0.0003,0.0068,0.0085,0.098,0
8220022,1,-0.0049,0.0007,-0.0003,0.0133,-0.0052,0.0994,0
8220189,1,-0.0048,0.0007,-0.0004,0.0163,-0.0014,0.1006,0
8220356,1,-0.0048,0.0006,-0.0004,0.0114,-0.0123,0.1061,0
8220522,1,-0.0049,0.0006,-0.0004,0.0167,0.0058,0.0779,0
8220689,1,-0.0049,0.0006,-0.0004,0.0181,-0.007,0.1,0
8220856,1,-0.0049,0.0006,-0.0003,0.0121,-0.0023,0.1029,0
8221022,1,-0.0049,0.0006,-0.0003,0.0048,-0.0024,0.0878,0
8221189,1,-0.0049,0.0006,-0.0003,0.0027,-0.0014,0.0887,0
8221356,1,-0.0049,0.0007,-0.0003,0.0106,-0.0023,0.0948,0
8221522,1,-0.0049,0.0006,-0.0003,0.0053,-0.0008,0.0932,0
8221689,1,-0.0049,0.0006,-0.0003,0.0132,-0.0097,0.0969,0
8221856,1,-0.0049,0.0007,-0.0003,0.0177,-0.0105,0.0983,0
8222022,1,-0.0049,0.0006,-0.0003,0.006,0.0011,0.0984,0
8222189,1,-0.0049,0.0006,-0.0004,0.0008,0,0.101,0
8222356,1,-0.0049,0.0006,-0.0004,0.007,-0.0142,0.1063,0
8222522,1,-0.0049,0.0007,-0.0003,0.0102,-0.0022,0.0989,0
8222689,1,-0.0049,0.0006,-0.0003,-0.0028,0.0116,0.1065,0
8222856,1,-0.0049,0.0007,-0.0003,0.0159,-0.006,0.1001,0
8223022,1,-0.0049,0.0007,-0.0003,0.017,0.004,0.1098,0
8223189,1,-0.0049,0.0007,-0.0003,0.0144,0.0106,0.1017,0
8223356,1,-0.0049,0.0007,-0.0004,-0.005,-0.0009,0.0986,0
8223522,1,-0.0049,0.0007,-0.0004,-0.0035,-0.0098,0.1063,0
8223689,1,-0.0049,0.0007,-0.0004,0.0104,0.0146,0.1011,0
8223856,1,-0.0049,0.0007,-0.0003,0.0041,0.0038,0.1273,0
8224022,1,-0.0049,0.0007,-0.0003,0.0072,0.0047,0.0842,0
8224189,1,-0.0049,0.0007,-0.0003,0.0165,0.0002,0.1165,0
8224356,1,-0.0049,0.0007,-0.0003,0.0101,0.0057,0.1086,0
8224522,1,-0.0049,0.0007,-0.0003,0.0093,-0.0143,0.0748,0
8224689,1,-0.0049,0.0007,-0.0003,0.0108,-0.0001,0.0625,0
8224856,1,-0.0048,0.0007,-0.0003,0.0026,-0.0001,0.0936,0
8225022,1,-0.0048,0.0007,-0.0003,0.0085,0.0024,0.0837,0
8225189,1,-0.0048,0.0007,-0.0004,0.0091,-0.0004,0.1139,0
8225356,1,-0.0048,0.0007,-0.0003,0.0215,-0.0059,0.0853,0
8225522,1,-0.0048,0.0007,-0.0004,0.0247,0.0079,0.133,0
8225689,1,-0.0048,0.0007,-0.0004,0.0014,0.0054,0.0917,0
8225856,1,-0.0048,0.0007,-0.0004,0.0087,0.0003,0.0933,0
8226022,1,-0.0048,0.0007,-0.0004,0.0064,-0.0117,0.0944,0
8226189,1,-0.0048,0.0007,-0.0004,0.0135,-0.0137,0.1064,0
8226356,1,-0.0048,0.0007,-0.0004,0.0079,0.0053,0.0871,0
8226522,1,-0.0048,0.0007,-0.0004,0.0163,-0.003,0.0907,0
8226689,1,-0.0048,0.0007,-0.0004,0.0117,-0.0036,0.0965,0
8226856,1,-0.0048,0.0007,-0.0004,0.0033,-0.0042,0.1049,0
8227022,1,-0.0048,0.0007,-0.0004,-0.0022,0.0066,0.0865,0
8227189,1,-0.0048,0.0007,-0.0004,-0.0027,-0.0035,0.1002,0
8227356,1,-0.0048,0.0007,-0.0004,0.0095,-0.0024,0.0878,0
8227522,1,-0.0048,0.0007,-0.0004,-0.0055,-0.001,0.078,0
8227689,1,-0.0048,0.0008,-0.0004,0.0016,0.0033,0.064,0
8227856,1,-0.0048,0.0008,-0.0004,0.0224,-0.0028,0.1004,0
8228022,1,-0.0048,0.0008,-0.0004,0.0206,0.0126,0.103,0
8228189,1,-0.0048,0.0008,-0.0004,0.0047,0.005,0.096,0
8228356,1,-0.0048,0.0008,-0.0004,0.0127,-0.0119,0.0933,0
8228522,1,-0.0048,0.0008,-0.0004,-0.0057,-0.0035,0.0839,0
8228689,1,-0.0048,0.0008,-0.0004,0.0077,-0.0038,0.0921,0
8228856,1,-0.0048,0.0008,-0.0004,-0.0001,-0.0021,0.1067,0
8229022,1,-0.0048,0.0008,-0.0004,0.015,-0.0043,0.0904,0
8229189,1,-0.0048,0.0008,-0.0004,0.0064,-0.0033,0.0917,0
8229356,1,-0.0048,0.0008,-0.0004,0.0224,0,0.102,0
8229522,1,-0.0048,0.0007,-0.0004,0.0037,0.0034,0.0958,0
8229689,1,-0.0048,0.0008,-0.0004,0.0059,-0.0049,0.0996,0
8229856,1,-0.0048,0.0008,-0.0004,0.0089,0.0057,0.0856,0
8230023,1,-0.0048,0.0008,-0.0004,0.0076,-0.0081,0.1051,0
8230189,1,-0.0048,0.0008,-0.0004,0.0105,0.0021,0.107,0
8230356,1,-0.0048,0.0008,-0.0004,0.0186,-0.001,0.0977,0
8230523,1,-0.0048,0.0008,-0.0004,0.0068,-0.0231,0.1001,0
8230689,1,-0.0048,0.0008,-0.0004,-0.0041,-0.0034,0.1071,0
8230856,1,-0.0048,0.0008,-0.0004,0.0148,-0.0206,0.0872,0
8231023,1,-0.0048,0.0007,-0.0004,0.0192,0.0035,0.1173,0
8231189,1,-0.0048,0.0008,-0.0004,0.0142,0.0034,0.1063,0
8231356,1,-0.0048,0.0007,-0.0004,0.0034,-0.004,0.0877,0
8231523,1,-0.0048,0.0007,-0.0004,0.0175,0.0009,0.1038,0
8231689,1,-0.0048,0.0008,-0.0004,0.0019,-0.0007,0.0864,0
8231856,1,-0.0048,0.0007,-0.0004,0.0107,-0.0031,0.0937,0
8232023,1,-0.0048,0.0007,-0.0004,0.0043,0.0056,0.111,0
8232189,1,-0.0048,0.0007,-0.0004,0.0136,-0.0075,0.0977,0
8232356,1,-0.0048,0.0007,-0.0004,0.0067,-0.0006,0.0921,0
8232523,1,-0.0048,0.0007,-0.0004,0.0019,-0.0022,0.0982,0
8232689,1,-0.0048,0.0008,-0.0004,-0.003,0.0093,0.0823,0
8232856,1,-0.0048,0.0008,-0.0004,0.0099,0.0022,0.1041,0
8233023,1,-0.0048,0.0008,-0.0004,-0.0019,-0.003,0.1021,0
8233189,1,-0.0048,0.0008,-0.0004,0.0077,0.0028,0.0907,0
8233356,1,-0.0048,0.0008,-0.0004,0.0103,0.0003,0.0701,0
8233523,1,-0.0048,0.0008,-0.0004,0.0088,0.0113,0.1104,0
8233689,1,-0.0048,0.0008,-0.0004,0.0126,-0.0033,0.0969,0
8233856,1,-0.0048,0.0008,-0.0004,-0.004,-0.0059,0.0873,0
8234023,1,-0.0048,0.0007,-0.0004,0.0195,-0.0163,0.0888,0
8234189,1,-0.0048,0.0007,-0.0004,-0.0016,0.0051,0.073,0
8234356,1,-0.0048,0.0007,-0.0004,0.0017,0.0006,0.0999,0
8234523,1,-0.0048,0.0007,-0.0004,0.006,-0.0099,0.0968,0
8234689,1,-0.0048,0.0007,-0.0004,0.0083,0.0037,0.0879,0
8234856,1,-0.0048,0.0007,-0.0004,0.0004,-0.0039,0.0895,0
8235023,1,-0.0048,0.0007,-0.0004,0.0163,-0.017,0.0921,0
8235189,1,-0.0048,0.0007,-0.0004,0.0015,0.0024,0.0904,0
8235356,1,-0.0048,0.0007,-0.0004,0.0033,-0.0059,0.1061,0
8235523,1,-0.0048,0.0007,-0.0004,0.0048,-0.0117,0.0981,0
8235689,1,-0.0048,0.0007,-0.0004,0.0065,-0.0038,0.1089,0
8235856,1,-0.0048,0.0007,-0.0004,0.0128,-0.0022,0.0915,0
8236023,1,-0.0048,0.0007,-0.0004,0.0164,0.0081,0.1056,0
8236189,1,-0.0048,0.0007,-0.0004,0.0065,-0.0086,0.0877,0
8236356,1,-0.0048,0.0007,-0.0004,0.0245,-0.0021,0.0965,0
8236523,1,-0.0048,0.0007,-0.0004,0.0036,-0.0015,0.1009,0
8236689,1,-0.0048,0.0007,-0.0004,0.017,-0.0116,0.0753,0
8236856,1,-0.0048,0.0007,-0.0004,0.0074,-0.0087,0.0952,0
8237023,1,-0.0048,0.0007,-0.0004,0.0201,0.0119,0.093,0
8237189,1,-0.0048,0.0007,-0.0004,0.0127,-0.0135,0.1054,0
8237356,1,-0.0048,0.0007,-0.0004,0.0127,0.0005,0.0906,0
8237523,1,-0.0048,0.0007,-0.0004,0.0106,-0.0006,0.1003,0
8237689,1,-0.0048,0.0007,-0.0003,0.0072,-0.0069,0.092,0
8237856,1,-0.0048,0.0007,-0.0003,0.0127,-0.0025,0.1088,0
8238023,1,-0.0048,0.0007,-0.0003,-0.0004,-0.0144,0.096,0
8238189,1,-0.0048,0.0007,-0.0003,0.0163,0.0002,0.1127,0
8238356,1,-0.0048,0.0007,-0.0003,0.0135,0.001,0.0856,0
8238523,1,-0.0048,0.0007,-0.0003,0.0017,0.0092,0.0997,0
8238689,1,-0.0048,0.0007,-0.0003,-0.0055,0.0103,0.0842,0
8238856,1,-0.0048,0.0007,-0.0004,0.0051,-0.0114,0.0966,0
8239023,1,-0.0048,0.0007,-0.0004,-0.0039,-0.0072,0.0962,0
8239189,1,-0.0048,0.0007,-0.0004,0.0184,0.0035,0.1152,0
8239356,1,-0.0048,0.0007,-0.0004,0.0236,-0.0021,0.0943,0
8239523,1,-0.0048,0.0007,-0.0004,0.0202,-0.0011,0.0808,0
8239689,1,-0.0048,0.0007,-0.0004,0.0013,0.0131,0.0921,0
8239856,1,-0.0048,0.0007,-0.0004,0.0069,0.0021,0.0842,0
8240023,1,-0.0048,0.0007,-0.0004,0.0073,0.0017,0.0845,0
8240189,1,-0.0048,0.0007,-0.0004,0.0067,-0.0025,0.0816,0
8240356,1,-0.0048,0.0007,-0.0004,0.0234,-0.0004,0.1071,0
8240523,1,-0.0048,0.0008,-0.0004,-0.0015,0.0063,0.0688,0
8240689,1,-0.0048,0.0007,-0.0004,0.0022,-0.0066,0.0956,0
8240856,1,-0.0048,0.0007,-0.0003,0.0209,-0.0046,0.1019,0
8241023,1,-0.0048,0.0007,-0.0003,0.0082,-0.0107,0.1138,0
8241189,1,-0.0048,0.0007,-0.0004,-0.0013,-0.0017,0.0966,0
8241356,1,-0.0048,0.0007,-0.0004,0.0115,-0.0046,0.1121,0
8241523,1,-0.0048,0.0007,-0.0004,0.0059,0.0037,0.0836,0
8241689,1,-0.0048,0.0007,-0.0004,0.0105,-0.0022,0.0871,0
8241856,1,-0.0048,0.0007,-0.0004,0.0028,-0.0091,0.093,0
8242023,1,-0.0048,0.0007,-0.0004,-0.0013,-0.0009,0.091,0
8242189,1,-0.0048,0.0007,-0.0004,0.007,0.0015,0.0923,0
8242356,1,-0.0048,0.0007,-0.0003,0.0042,-0.0034,0.0937,0
8242523,1,-0.0048,0.0007,-0.0004,0.0107,-0.0033,0.0782,0
8242689,1,-0.0048,0.0007,-0.0004,0.0023,-0.0062,0.1075,0
8242856,1,-0.0048,0.0007,-0.0004,0.0075,0.0029,0.1063,0
8243023,1,-0.0048,0.0007,-0.0004,0.0087,0.0063,0.0888,0
8243189,1,-0.0048,0.0007,-0.0003,0.0042,0.0006,0.0983,0
8243356,1,-0.0048,0.0007,-0.0004,0.0012,-0.0023,0.087,0
8243523,1,-0.0049,0.0007,-0.0004,0.0018,0.0045,0.084,0
8243689,1,-0.0049,0.0007,-0.0004,-0.0005,0.0014,0.1117,0
8243856,1,-0.0049,0.0007,-0.0004,-0.0028,-0.0168,0.0826,0
8244023,1,-0.0049,0.0007,-0.0004,0.016,-0.0007,0.1015,0
8244189,1,-0.0049,0.0007,-0.0004,-0.0023,0.0057,0.0783,0
8244356,1,-0.0049,0.0007,-0.0004,0.0069,-0.0053,0.0634,0
8244523,1,-0.0049,0.0007,-0.0004,0.0142,0.0109,0.08,0
8244689,1,-0.0049,0.0007,-0.0004,0.0002,0.0023,0.1089,0
8244856,1,-0.0049,0.0007,-0.0004,0.001,-0.004,0.1008,0
8245023,1,-0.0049,0.0007,-0.0004,0.0108,-0.0122,0.0991,0
8245189,1,-0.0049,0.0007,-0.0004,0.0124,-0.0113,0.1054,0
8245356,1,-0.0049,0.0007,-0.0004,0.0054,-0.0049,0.0801,0
8245523,1,-0.0049,0.0007,-0.0004,0.0032,0.0089,0.0882,0
8245689,1,-0.0049,0.0007,-0.0004,0.0126,0.008,0.1023,0
8245856,1,-0.0049,0.0007,-0.0004,0.0017,0.0066,0.0941,0
8246023,1,-0.0049,0.0007,-0.0004,0.0136,-0.0004,0.0941,0
8246189,1,-0.0049,0.0007,-0.0004,0.0022,-0.0039,0.0843,0
8246356,1,-0.0049,0.0007,-0.0004,0.016,0.0086,0.0823,0
8246523,1,-0.0049,0.0007,-0.0004,0.007,0.0025,0.0923,0
8246690,1,-0.0049,0.0007,-0.0004,0.0034,0.0118,0.1104,0
8246856,1,-0.0049,0.0007,-0.0004,0.0018,0.0041,0.1044,0
8247023,1,-0.0049,0.0007,-0.0004,0.0098,-0.0033,0.0911,0
8247190,1,-0.0049,0.0007,-0.0004,0.0138,-0.0067,0.1041,0
8247356,1,-0.0049,0.0007,-0.0004,0.0117,-0.0064,0.1112,0
8247523,1,-0.0049,0.0007,-0.0004,0.0226,0.0015,0.0983,0
8247690,1,-0.0049,0.0007,-0.0004,0.0093,0.0169,0.09,0
8247856,1,-0.0049,0.0007,-0.0004,0.0015,0.0094,0.0856,0
8248023,1,-0.0049,0.0007,-0.0004,0.0171,-0.008,0.0833,0
8248190,1,-0.0049,0.0007,-0.0004,-0.0082,-0.0011,0.0904,0
8248356,1,-0.0049,0.0007,-0.0004,0.0097,0.0062,0.0912,0
8248523,1,-0.0049,0.0007,-0.0004,0.0123,-0.0008,0.0959,0
8248690,1,-0.0049,0.0007,-0.0004,0.0023,-0.0055,0.1002,0
8248856,1,-0.0049,0.0007,-0.0004,0.0112,-0.0061,0.1052,0
8249023,1,-0.0049,0.0007,-0.0004,-0.0015,-0.015,0.0939,0
8249190,1,-0.0049,0.0007,-0.0004,0.0121,-0.0075,0.1174,0
8249356,1,-0.0049,0.0007,-0.0004,-0.0008,-0.01,0.0942,0
8249523,1,-0.0049,0.0007,-0.0004,-0.0013,-0.0075,0.0784,0
8249690,1,-0.0049,0.0007,-0.0004,0.0067,0.0019,0.0899,0
8249856,1,-0.0049,0.0007,-0.0004,0.004,0.0078,0.0882,0
8250023,1,-0.0049,0.0008,-0.0004,0.0177,-0.0015,0.0898,0
8250190,1,-0.0049,0.0007,-0.0004,0.0025,0.0064,0.0847,0
8250356,1,-0.0049,0.0007,-0.0004,0.0145,-0.003,0.0841,0
8250523,1,-0.0049,0.0008,-0.0004,0.0111,-0.0085,0.0869,0
8250690,1,-0.0049,0.0008,-0.0004,-0.0011,-0.0034,0.1099,0
8250856,1,-0.0049,0.0007,-0.0004,0.0086,-0.007,0.0807,0
8251023,1,-0.0049,0.0007,-0.0004,0.0184,0.015,0.1059,0
8251190,1,-0.0049,0.0007,-0.0004,0.0198,-0.0077,0.0924,0
8251356,1,-0.0049,0.0007,-0.0004,0.0052,0,0.0987,0
8251523,1,-0.0049,0.0007,-0.0004,0.0039,0.0027,0.0972,0
8251690,1,-0.0049,0.0007,-0.0004,0.0132,-0.0041,0.0922,0
8251856,1,-0.0049,0.0007,-0.0004,0.0144,0.011,0.0829,0
8252023,1,-0.0049,0.0007,-0.0004,0.0022,-0.002,0.0889,0
8252190,1,-0.0049,0.0007,-0.0004,0.015,0.0012,0.083,0
8252356,1,-0.0049,0.0007,-0.0004,0.0057,-0.0117,0.0861,0
8252523,1,-0.0049,0.0007,-0.0004,0.0002,-0.0039,0.0964,0
8252690,1,-0.0049,0.0007,-0.0004,0.0084,-0.0043,0.1035,0
8252856,1,-0.0049,0.0007,-0.0004,0.0083,0.0059,0.0871,0
8253023,1,-0.0049,0.0007,-0.0004,0.0189,-0.0024,0.0844,0
8253190,1,-0.0049,0.0007,-0.0004,0.0187,-0.0036,0.0838,0
8253356,1,-0.005,0.0008,-0.0004,0.012,0.0105,0.0952,0
8253523,1,-0.005,0.0007,-0.0004,0.0019,0.0022,0.0932,0
8253690,1,-0.0049,0.0008,-0.0004,0.006,0.0052,0.0929,0
8253856,1,-0.0049,0.0008,-0.0004,0.005,0.002,0.091,0
8254023,1,-0.0049,0.0007,-0.0005,0.0077,0.0044,0.1012,0
8254190,1,-0.0049,0.0007,-0.0005,-0.0149,0.0047,0.0848,0
