DeviceTag: 5,FirmwareVersion: 2.4.0,AppVersion: 2022.2.0,SyncStatus: Unknown (Synced/Un-synced),OutputRate: 60,FilterProfile: Unknown,Measurement Mode: Sensor fusion Mode - Extended (Euler),StartTime: 2023-08-10 15:40:58.082,© Movella Technologies B.V. 2005-2023
SampleTimeFine,Quat_W,Quat_X,Quat_Y,Quat_Z,FreeAcc_X,FreeAcc_Y,FreeAcc_Z,Status
10447820,0.9999,-0.0073,0.0075,0.0074,-0.0302,0.0010,0.1633,0
10447987,0.9999,-0.0071,0.0077,0.0072,-0.0243,-0.0095,0.1600,0
10448154,0.9999,-0.0071,0.0080,0.0068,-0.0222,-0.0124,0.1711,0
10448320,0.9999,-0.0070,0.0082,0.0066,-0.0042,-0.0108,0.1674,0
10448487,0.9999,-0.0070,0.0083,0.0064,0.0048,-0.0011,0.1573,0
10448654,0.9999,-0.0069,0.0082,0.0064,0.0191,0.0081,0.1947,0
10448820,0.9999,-0.0067,0.0082,0.0063,0.0152,-0.0220,0.1848,0
10448987,0.9999,-0.0066,0.0081,0.0062,-0.0093,-0.0175,0.1708,0
10449154,0.9999,-0.0065,0.0080,0.0062,-0.0322,-0.0382,0.1512,0
10449320,0.9999,-0.0064,0.0079,0.0060,-0.0299,-0.0352,0.1563,0
10449487,0.9999,-0.0064,0.0079,0.0059,-0.0128,-0.0214,0.1591,0
10449654,0.9999,-0.0063,0.0079,0.0059,0.0035,-0.0139,0.1867,0
10449820,0.9999,-0.0062,0.0079,0.0058,0.0081,-0.0089,0.1615,0
10449987,0.9999,-0.0061,0.0078,0.0058,0.0030,-0.0212,0.1685,0
10450154,0.9999,-0.0060,0.0078,0.0058,-0.0171,-0.0300,0.1445,0
10450320,0.9999,-0.0058,0.0077,0.0059,-0.0134,-0.0358,0.1673,0
10450487,0.9999,-0.0057,0.0077,0.0059,-0.0185,-0.0395,0.1453,0
10450654,0.9999,-0.0056,0.0076,0.0059,-0.0040,-0.0402,0.1560,0
10450820,0.9999,-0.0055,0.0076,0.0060,-0.0111,-0.0366,0.1766,0
10450987,0.9999,-0.0054,0.0075,0.0060,-0.0065,-0.0369,0.1871,0
10451154,0.9999,-0.0053,0.0075,0.0060,-0.0087,-0.0372,0.1565,0
10451320,0.9999,-0.0052,0.0074,0.0060,-0.0114,-0.0521,0.1652,0
10451487,0.9999,-0.0051,0.0074,0.0060,-0.0335,-0.0607,0.1607,0
10451654,0.9999,-0.0050,0.0073,0.0060,-0.0285,-0.0490,0.1485,0
10451820,0.9999,-0.0049,0.0073,0.0060,-0.0220,-0.0414,0.1500,0
10451987,0.9999,-0.0048,0.0072,0.0061,-0.0113,-0.0454,0.1868,0
10452154,0.9999,-0.0047,0.0072,0.0061,-0.0183,-0.0266,0.1842,0
10452320,0.9999,-0.0046,0.0071,0.0061,-0.0116,-0.0573,0.1686,0
10452487,0.9999,-0.0045,0.0071,0.0061,-0.0234,-0.0597,0.1790,0
10452654,0.9999,-0.0043,0.0070,0.0061,-0.0301,-0.0735,0.1651,0
10452820,0.9999,-0.0042,0.0070,0.0061,-0.0348,-0.0660,0.1463,0
10452987,0.9999,-0.0041,0.0070,0.0061,-0.0497,-0.0653,0.1578,0
10453154,0.9999,-0.0040,0.0069,0.0062,-0.0208,-0.0541,0.1567,0
10453320,0.9999,-0.0039,0.0069,0.0062,-0.0167,-0.0612,0.1856,0
10453487,1.0000,-0.0038,0.0068,0.0062,-0.0162,-0.0900,0.1782,0
10453654,1.0000,-0.0037,0.0068,0.0063,-0.0176,-0.0880,0.1592,0
10453820,1.0000,-0.0036,0.0068,0.0063,-0.0421,-0.0899,0.1659,0
10453987,1.0000,-0.0035,0.0067,0.0063,-0.0440,-0.0945,0.1742,0
10454154,1.0000,-0.0033,0.0067,0.0063,-0.0368,-0.1041,0.1626,0
10454320,1.0000,-0.0032,0.0066,0.0062,-0.0425,-0.0709,0.1978,0
10454487,1.0000,-0.0031,0.0065,0.0063,-0.0199,-0.0740,0.1944,0
10454654,1.0000,-0.0030,0.0065,0.0063,-0.0159,-0.0932,0.1830,0
10454820,1.0000,-0.0029,0.0065,0.0064,-0.0300,-0.0945,0.1606,0
10454987,1.0000,-0.0028,0.0064,0.0064,-0.0590,-0.1042,0.1529,0
10455154,1.0000,-0.0027,0.0064,0.0064,-0.0357,-0.1019,0.1391,0
10455320,1.0000,-0.0026,0.0064,0.0064,-0.0488,-0.0898,0.1433,0
10455487,1.0000,-0.0025,0.0063,0.0064,-0.0208,-0.0843,0.1633,0
10455654,1.0000,-0.0024,0.0063,0.0064,-0.0261,-0.0904,0.1795,0
10455820,1.0000,-0.0023,0.0062,0.0065,-0.0326,-0.1002,0.1813,0
10455987,1.0000,-0.0022,0.0062,0.0064,-0.0433,-0.0894,0.1614,0
10456154,1.0000,-0.0021,0.0061,0.0064,-0.0506,-0.1017,0.1631,0
10456320,1.0000,-0.0020,0.0061,0.0065,-0.0509,-0.1183,0.1501,0
10456487,1.0000,-0.0019,0.0060,0.0065,-0.0491,-0.1065,0.1689,0
10456654,1.0000,-0.0018,0.0060,0.0065,-0.0345,-0.1203,0.1711,0
10456820,1.0000,-0.0017,0.0059,0.0065,-0.0385,-0.1119,0.1994,0
10456987,1.0000,-0.0016,0.0059,0.0065,-0.0335,-0.1099,0.1731,0
10457154,1.0000,-0.0015,0.0059,0.0066,-0.0456,-0.1170,0.1679,0
10457320,1.0000,-0.0014,0.0058,0.0066,-0.0456,-0.1174,0.1655,0
10457487,1.0000,-0.0013,0.0058,0.0066,-0.0513,-0.1268,0.1654,0
10457654,1.0000,-0.0012,0.0057,0.0066,-0.0584,-0.1229,0.1553,0
10457820,1.0000,-0.0011,0.0057,0.0066,-0.0391,-0.1307,0.1829,0
10457987,1.0000,-0.0010,0.0056,0.0066,-0.0383,-0.1301,0.1853,0
10458154,1.0000,-0.0009,0.0056,0.0066,-0.0513,-0.1317,0.1796,0
10458320,1.0000,-0.0008,0.0055,0.0066,-0.0553,-0.1300,0.1597,0
10458487,1.0000,-0.0007,0.0055,0.0067,-0.0792,-0.1258,0.1470,0
10458654,1.0000,-0.0005,0.0055,0.0067,-0.0720,-0.1522,0.1434,0
10458820,1.0000,-0.0005,0.0054,0.0067,-0.0686,-0.1501,0.1574,0
10458987,1.0000,-0.0004,0.0054,0.0068,-0.0394,-0.1346,0.1717,0
10459154,1.0000,-0.0003,0.0053,0.0068,-0.0421,-0.1306,0.1799,0
10459320,1.0000,-0.0002,0.0053,0.0068,-0.0362,-0.1279,0.1692,0
10459487,1.0000,-0.0001,0.0053,0.0068,-0.0622,-0.1450,0.1636,0
10459654,1.0000,0.0000,0.0052,0.0068,-0.0773,-0.1543,0.1824,0
10459820,1.0000,0.0001,0.0052,0.0068,-0.0722,-0.1560,0.1098,0
10459987,1.0000,0.0002,0.0052,0.0068,-0.0639,-0.1693,0.1848,0
10460154,1.0000,0.0003,0.0051,0.0068,-0.0562,-0.1643,0.1779,0
10460320,1.0000,0.0004,0.0051,0.0069,-0.0480,-0.1460,0.1819,0
10460487,1.0000,0.0005,0.0050,0.0069,-0.0442,-0.1356,0.1737,0
10460654,1.0000,0.0006,0.0050,0.0069,-0.0544,-0.1677,0.1853,0
10460820,1.0000,0.0007,0.0050,0.0069,-0.0736,-0.1723,0.1669,0
10460987,1.0000,0.0008,0.0049,0.0070,-0.0639,-0.1801,0.1274,0
10461154,1.0000,0.0009,0.0049,0.0070,-0.0716,-0.1815,0.1760,0
10461321,1.0000,0.0010,0.0048,0.0070,-0.0651,-0.1600,0.1778,0
10461487,1.0000,0.0011,0.0048,0.0070,-0.0525,-0.1663,0.1728,0
10461654,1.0000,0.0011,0.0048,0.0071,-0.0581,-0.1686,0.1928,0
10461821,1.0000,0.0012,0.0047,0.0070,-0.0703,-0.1787,0.1844,0
10461987,1.0000,0.0013,0.0047,0.0071,-0.0806,-0.1903,0.1612,0
10462154,1.0000,0.0014,0.0046,0.0071,-0.0776,-0.1725,0.1535,0
10462321,1.0000,0.0015,0.0046,0.0071,-0.0749,-0.1823,0.1688,0
10462487,1.0000,0.0016,0.0046,0.0071,-0.0693,-0.1864,0.1744,0
10462654,1.0000,0.0016,0.0045,0.0071,-0.0605,-0.1733,0.1931,0
10462821,1.0000,0.0017,0.0045,0.0071,-0.0615,-0.1717,0.1744,0
10462987,1.0000,0.0018,0.0045,0.0072,-0.0788,-0.1822,0.1711,0
10463154,1.0000,0.0019,0.0044,0.0072,-0.0915,-0.1804,0.1490,0
10463321,1.0000,0.0020,0.0044,0.0072,-0.0920,-0.1985,0.1418,0
10463487,1.0000,0.0020,0.0044,0.0073,-0.0832,-0.1976,0.1723,0
10463654,1.0000,0.0021,0.0043,0.0073,-0.0581,-0.2048,0.1835,0
10463821,1.0000,0.0022,0.0043,0.0073,-0.0699,-0.1908,0.1881,0
10463987,1.0000,0.0022,0.0043,0.0073,-0.0606,-0.1788,0.1658,0
10464154,1.0000,0.0023,0.0042,0.0073,-0.0850,-0.1822,0.1686,0
10464321,1.0000,0.0024,0.0042,0.0073,-0.0877,-0.1931,0.1665,0
10464487,1.0000,0.0025,0.0042,0.0074,-0.0895,-0.2201,0.1582,0
10464654,1.0000,0.0025,0.0042,0.0074,-0.0886,-0.2047,0.1734,0
10464821,1.0000,0.0026,0.0041,0.0074,-0.0723,-0.2047,0.1664,0
10464987,1.0000,0.0027,0.0041,0.0074,-0.0894,-0.2000,0.1801,0
10465154,1.0000,0.0027,0.0041,0.0075,-0.0688,-0.1923,0.1760,0
10465321,1.0000,0.0028,0.0041,0.0075,-0.0683,-0.2068,0.1676,0
10465487,1.0000,0.0029,0.0040,0.0075,-0.0956,-0.2084,0.1842,0
10465654,1.0000,0.0029,0.0040,0.0075,-0.1023,-0.2244,0.1605,0
10465821,1.0000,0.0030,0.0040,0.0076,-0.0800,-0.2198,0.1603,0
10465987,1.0000,0.0030,0.0039,0.0076,-0.0718,-0.2107,0.1756,0
10466154,1.0000,0.0031,0.0039,0.0076,-0.0695,-0.2100,0.1941,0
10466321,1.0000,0.0031,0.0039,0.0076,-0.0681,-0.2020,0.1677,0
10466487,1.0000,0.0032,0.0039,0.0077,-0.0935,-0.2082,0.1717,0
10466654,1.0000,0.0032,0.0038,0.0077,-0.1170,-0.2043,0.1601,0
10466821,1.0000,0.0033,0.0038,0.0077,-0.1031,-0.2322,0.1563,0
10466987,1.0000,0.0033,0.0038,0.0077,-0.1082,-0.2256,0.1648,0
10467154,1.0000,0.0034,0.0038,0.0078,-0.0822,-0.2058,0.1602,0
10467321,1.0000,0.0034,0.0037,0.0078,-0.0692,-0.2153,0.1645,0
10467487,1.0000,0.0035,0.0037,0.0078,-0.0731,-0.2140,0.1730,0
10467654,0.9999,-0.0077,0.0084,0.0080,-0.0045,0.0038,0.1793,0
10467821,0.9999,-0.0077,0.0084,0.0079,-0.0064,-0.0100,0.1549,0
10467987,0.9999,-0.0077,0.0084,0.0079,0.0134,-0.0171,0.1595,0
10468154,0.9999,-0.0077,0.0084,0.0079,-0.0134,-0.0074,0.1654,0
10468321,0.9999,-0.0077,0.0084,0.0079,-0.0007,-0.0024,0.1783,0
10468487,0.9999,-0.0077,0.0084,0.0079,0.0125,0.0152,0.1845,0
10468654,0.9999,-0.0077,0.0084,0.0079,0.0252,0.0172,0.1881,0
10468821,0.9999,-0.0077,0.0084,0.0079,-0.0087,0.0012,0.1622,0
10468987,0.9999,-0.0077,0.0084,0.0079,-0.0270,0.0061,0.1681,0
10469154,0.9999,-0.0077,0.0084,0.0079,-0.0071,-0.0095,0.1633,0
10469321,0.9999,-0.0077,0.0084,0.0078,0.0079,-0.0132,0.1572,0
10469487,0.9999,-0.0077,0.0084,0.0078,0.0085,0.0129,0.1830,0
10469654,0.9999,-0.0077,0.0084,0.0078,0.0223,0.0105,0.1734,0
10469821,0.9999,-0.0077,0.0084,0.0078,-0.0003,0.0002,0.1685,0
10469987,0.9999,-0.0077,0.0084,0.0078,-0.0063,-0.0050,0.1659,0
10470154,0.9999,-0.0077,0.0084,0.0078,-0.0153,-0.0140,0.1422,0
10470321,0.9999,-0.0077,0.0084,0.0078,-0.0052,-0.0149,0.1451,0
10470487,0.9999,-0.0077,0.0084,0.0078,-0.0031,-0.0179,0.1666,0
10470654,0.9999,-0.0077,0.0084,0.0078,0.0171,0.0020,0.1753,0
10470821,0.9999,-0.0077,0.0084,0.0078,0.0195,0.0096,0.1991,0
10470987,0.9999,-0.0077,0.0084,0.0078,0.0068,0.0190,0.1733,0
10471154,0.9999,-0.0077,0.0084,0.0078,-0.0042,-0.0082,0.1810,0
10471321,0.9999,-0.0077,0.0084,0.0078,-0.0083,-0.0170,0.1654,0
10471487,0.9999,-0.0077,0.0084,0.0077,-0.0055,-0.0006,0.1536,0
10471654,0.9999,-0.0077,0.0084,0.0077,0.0176,0.0120,0.1703,0
10471821,0.9999,-0.0077,0.0084,0.0077,0.0102,0.0019,0.1709,0
10471987,0.9999,-0.0077,0.0084,0.0077,0.0053,0.0104,0.1937,0
10472154,0.9999,-0.0077,0.0084,0.0077,0.0058,0.0079,0.1820,0
10472321,0.9999,-0.0077,0.0084,0.0077,-0.0037,0.0013,0.1840,0
10472487,0.9999,-0.0077,0.0084,0.0077,-0.0171,-0.0165,0.1395,0
10472654,0.9999,-0.0077,0.0084,0.0077,-0.0167,-0.0009,0.1654,0
10472821,0.9999,-0.0077,0.0084,0.0077,0.0016,0.0020,0.1742,0
10472987,0.9999,-0.0077,0.0084,0.0076,0.0144,0.0188,0.1856,0
10473154,0.9999,-0.0077,0.0084,0.0076,0.0184,0.0028,0.1996,0
10473321,0.9999,-0.0077,0.0084,0.0076,0.0201,0.0124,0.1900,0
10473487,0.9999,-0.0077,0.0084,0.0076,-0.0009,0.0029,0.1528,0
10473654,0.9999,-0.0077,0.0084,0.0076,-0.0093,-0.0224,0.1558,0
10473821,0.9999,-0.0077,0.0084,0.0076,-0.0046,-0.0153,0.1434,0
10473987,0.9999,-0.0077,0.0084,0.0076,-0.0102,0.0051,0.1647,0
10474154,0.9999,-0.0077,0.0084,0.0076,-0.0032,0.0183,0.1758,0
10474321,0.9999,-0.0077,0.0083,0.0076,0.0301,0.0145,0.1762,0
10474487,0.9999,-0.0077,0.0083,0.0076,0.0116,0.0059,0.1772,0
10474654,0.9999,-0.0077,0.0084,0.0076,0.0070,-0.0113,0.1670,0
10474821,0.9999,-0.0077,0.0084,0.0076,-0.0156,0.0003,0.1581,0
10474987,0.9999,-0.0077,0.0084,0.0076,-0.0135,-0.0031,0.1678,0
10475154,0.9999,-0.0077,0.0084,0.0076,-0.0099,-0.0035,0.1693,0
10475321,0.9999,-0.0077,0.0084,0.0075,0.0198,0.0028,0.1742,0
10475487,0.9999,-0.0077,0.0084,0.0075,0.0188,0.0146,0.1897,0
10475654,0.9999,-0.0077,0.0084,0.0075,0.0066,-0.0014,0.1567,0
10475821,0.9999,-0.0077,0.0084,0.0075,-0.0052,-0.0021,0.1851,0
10475987,0.9999,-0.0077,0.0084,0.0075,-0.0073,-0.0155,0.1582,0
10476154,0.9999,-0.0077,0.0084,0.0075,-0.0023,-0.0084,0.1562,0
10476321,0.9999,-0.0077,0.0084,0.0075,-0.0029,-0.0024,0.1761,0
10476487,0.9999,-0.0077,0.0084,0.0075,0.0038,0.0053,0.2000,0
10476654,0.9999,-0.0077,0.0084,0.0075,0.0141,0.0086,0.1638,0
10476821,0.9999,-0.0077,0.0084,0.0075,0.0141,0.0197,0.1754,0
10476987,0.9999,-0.0077,0.0083,0.0075,-0.0014,-0.0035,0.1806,0
10477154,0.9999,-0.0077,0.0084,0.0075,-0.0194,-0.0194,0.1539,0
10477321,0.9999,-0.0077,0.0084,0.0075,-0.0255,-0.0185,0.1810,0
10477487,0.9999,-0.0077,0.0084,0.0075,-0.0076,0.0036,0.1624,0
10477654,0.9999,-0.0077,0.0084,0.0075,0.0083,0.0081,0.1597,0
10477821,0.9999,-0.0077,0.0084,0.0075,0.0264,0.0188,0.1928,0
10477988,0.9999,-0.0077,0.0084,0.0074,0.0110,0.0036,0.1708,0
10478154,0.9999,-0.0077,0.0084,0.0074,-0.0036,-0.0041,0.1841,0
10478321,0.9999,-0.0077,0.0083,0.0074,-0.0025,-0.0031,0.1602,0
10478488,0.9999,-0.0077,0.0083,0.0074,-0.0112,0.0029,0.1662,0
10478654,0.9999,-0.0077,0.0083,0.0074,-0.0087,0.0100,0.1685,0
10478821,0.9999,-0.0077,0.0083,0.0074,0.0096,0.0004,0.1728,0
10478988,0.9999,-0.0077,0.0084,0.0074,0.0126,0.0117,0.1680,0
10479154,0.9999,-0.0077,0.0084,0.0074,0.0091,0.0188,0.1617,0
10479321,0.9999,-0.0077,0.0084,0.0074,-0.0073,-0.0004,0.1650,0
10479488,0.9999,-0.0077,0.0084,0.0074,-0.0035,-0.0076,0.1689,0
10479654,0.9999,-0.0077,0.0084,0.0074,-0.0008,-0.0089,0.1721,0
10479821,0.9999,-0.0077,0.0084,0.0074,0.0010,-0.0038,0.1594,0
10479988,0.9999,-0.0077,0.0084,0.0074,-0.0097,0.0101,0.1667,0
10480154,0.9999,-0.0077,0.0083,0.0074,0.0097,0.0073,0.1893,0
10480321,0.9999,-0.0078,0.0084,0.0074,-0.0048,0.0036,0.1803,0
10480488,0.9999,-0.0078,0.0084,0.0074,0.0028,-0.0035,0.1723,0
10480654,0.9999,-0.0078,0.0084,0.0074,-0.0088,-0.0192,0.1456,0
10480821,0.9999,-0.0078,0.0084,0.0074,-0.0095,-0.0064,0.1842,0
10480988,0.9999,-0.0078,0.0083,0.0074,-0.0080,0.0019,0.1629,0
10481154,0.9999,-0.0078,0.0083,0.0074,-0.0090,0.0244,0.1672,0
10481321,0.9999,-0.0078,0.0083,0.0074,0.0081,0.0008,0.1882,0
10481488,0.9999,-0.0078,0.0083,0.0073,-0.0055,0.0023,0.1748,0
10481654,0.9999,-0.0078,0.0083,0.0073,-0.0060,-0.0060,0.1556,0
10481821,0.9999,-0.0078,0.0083,0.0073,0.0065,-0.0178,0.1704,0
10481988,0.9999,-0.0078,0.0083,0.0073,-0.0004,-0.0088,0.1754,0
10482154,0.9999,-0.0078,0.0083,0.0073,0.0155,0.0066,0.1762,0
10482321,0.9999,-0.0078,0.0083,0.0073,0.0082,-0.0016,0.1606,0
10482488,0.9999,-0.0078,0.0083,0.0073,-0.0050,0.0129,0.1876,0
10482654,0.9999,-0.0078,0.0083,0.0073,0.0128,0.0046,0.1747,0
10482821,0.9999,-0.0078,0.0083,0.0073,-0.0114,-0.0090,0.1573,0
10482988,0.9999,-0.0078,0.0083,0.0073,-0.0160,0.0023,0.1609,0
10483154,0.9999,-0.0078,0.0083,0.0073,0.0081,-0.0002,0.1725,0
10483321,0.9999,-0.0078,0.0083,0.0073,0.0098,0.0010,0.1904,0
10483488,0.9999,-0.0078,0.0083,0.0073,0.0160,0.0030,0.1592,0
10483654,0.9999,-0.0078,0.0083,0.0073,0.0103,0.0093,0.1815,0
10483821,0.9999,-0.0078,0.0084,0.0073,-0.0073,0.0052,0.1863,0
10483988,0.9999,-0.0078,0.0084,0.0072,-0.0005,-0.0042,0.1626,0
10484154,0.9999,-0.0078,0.0083,0.0072,-0.0038,0.0076,0.1833,0
10484321,0.9999,-0.0078,0.0083,0.0072,-0.0038,-0.0012,0.1681,0
10484488,0.9999,-0.0078,0.0083,0.0072,-0.0087,0.0067,0.1879,0
10484654,0.9999,-0.0078,0.0083,0.0072,0.0197,0.0107,0.1823,0
10484821,0.9999,-0.0078,0.0083,0.0072,0.0127,0.0173,0.1801,0
10484988,0.9999,-0.0078,0.0083,0.0072,0.0080,0.0055,0.1429,0
10485154,0.9999,-0.0078,0.0083,0.0072,-0.0072,0.0054,0.1575,0
10485321,0.9999,-0.0078,0.0083,0.0072,-0.0062,0.0148,0.1727,0
10485488,0.9999,-0.0078,0.0083,0.0072,-0.0115,-0.0004,0.1661,0
10485654,0.9999,-0.0078,0.0083,0.0072,-0.0007,0.0002,0.1841,0
10485821,0.9999,-0.0078,0.0083,0.0072,0.0107,0.0125,0.1731,0
10485988,0.9999,-0.0078,0.0083,0.0072,0.0071,0.0129,0.1687,0
10486154,0.9999,-0.0078,0.0083,0.0072,-0.0004,0.0045,0.1615,0
10486321,0.9999,-0.0078,0.0084,0.0072,-0.0030,0.0016,0.1507,0
10486488,0.9999,-0.0078,0.0084,0.0072,-0.0101,-0.0033,0.1717,0
10486654,0.9999,-0.0078,0.0083,0.0072,0.0074,0.0002,0.1666,0
10486821,0.9999,-0.0078,0.0083,0.0072,-0.0093,0.0234,0.1837,0
10486988,0.9999,-0.0078,0.0083,0.0072,0.0197,-0.0096,0.1982,0
10487154,0.9999,-0.0078,0.0083,0.0072,0.0114,0.0083,0.1785,0
10487321,0.9999,-0.0078,0.0083,0.0071,-0.0018,0.0116,0.1670,0
10487488,0.9999,-0.0078,0.0083,0.0071,0.0123,-0.0122,0.1657,0
10487654,0.9999,-0.0077,0.0083,0.0072,-0.0078,-0.0034,0.1613,0
10487821,0.9999,-0.0077,0.0083,0.0071,0.0036,-0.0011,0.1879,0
10487988,0.9999,-0.0077,0.0083,0.0071,-0.0026,0.0019,0.1702,0
10488154,0.9999,-0.0077,0.0083,0.0071,0.0184,0.0080,0.1826,0
10488321,0.9999,-0.0077,0.0083,0.0071,-0.0132,0.0051,0.1654,0
10488488,0.9999,-0.0077,0.0083,0.0071,-0.0159,0.0015,0.1715,0
10488654,0.9999,-0.0077,0.0083,0.0071,-0.0141,-0.0068,0.1916,0
10488821,0.9999,-0.0077,0.0083,0.0071,0.0107,-0.0023,0.1538,0
10488988,0.9999,-0.0077,0.0083,0.0071,0.0036,-0.0097,0.1569,0
10489154,0.9999,-0.0077,0.0083,0.0071,0.0079,0.0065,0.1887,0
10489321,0.9999,-0.0077,0.0083,0.0071,0.0118,0.0102,0.1809,0
10489488,0.9999,-0.0077,0.0083,0.0071,0.0130,-0.0013,0.1897,0
10489654,0.9999,-0.0077,0.0083,0.0071,-0.0076,0.0041,0.1639,0
10489821,0.9999,-0.0077,0.0084,0.0071,-0.0134,0.0020,0.1545,0
10489988,0.9999,-0.0077,0.0083,0.0071,-0.0065,0.0015,0.1612,0
10490154,0.9999,-0.0077,0.0083,0.0071,-0.0135,0.0026,0.1841,0
10490321,0.9999,-0.0077,0.0083,0.0071,0.0168,-0.0046,0.1798,0
10490488,0.9999,-0.0077,0.0083,0.0071,0.0048,0.0039,0.1742,0
10490654,0.9999,-0.0077,0.0083,0.0071,-0.0049,-0.0014,0.1773,0
10490821,0.9999,-0.0077,0.0083,0.0071,-0.0096,0.0092,0.1479,0
10490988,0.9999,-0.0077,0.0083,0.0070,-0.0090,-0.0091,0.1487,0
10491154,0.9999,-0.0077,0.0083,0.0070,-0.0133,-0.0157,0.1702,0
10491321,0.9999,-0.0077,0.0083,0.0070,0.0089,-0.0009,0.1744,0
10491488,0.9999,-0.0077,0.0083,0.0070,0.0127,0.0021,0.1602,0
10491654,0.9999,-0.0077,0.0083,0.0070,0.0175,0.0082,0.1623,0
10491821,0.9999,-0.0077,0.0083,0.0070,-0.0049,0.0102,0.1564,0
10491988,0.9999,-0.0077,0.0083,0.0070,-0.0059,0.0093,0.1718,0
10492154,0.9999,-0.0077,0.0083,0.0070,-0.0198,-0.0058,0.1586,0
10492321,0.9999,-0.0077,0.0083,0.0070,-0.0155,0.0024,0.1739,0
10492488,0.9999,-0.0077,0.0083,0.0070,0.0081,0.0004,0.1709,0
10492654,0.9999,-0.0077,0.0083,0.0070,0.0030,0.0018,0.1833,0
10492821,0.9999,-0.0077,0.0083,0.0070,0.0047,0.0181,0.1481,0
10492988,0.9999,-0.0077,0.0083,0.0070,-0.0090,0.0163,0.1840,0
10493154,0.9999,-0.0077,0.0083,0.0070,-0.0170,-0.0061,0.1801,0
10493321,0.9999,-0.0077,0.0083,0.0070,-0.0081,-0.0079,0.1572,0
10493488,0.9999,-0.0077,0.0083,0.0070,-0.0110,-0.0041,0.1550,0
10493654,0.9999,-0.0077,0.0083,0.0070,-0.0022,0.0095,0.1670,0
10493821,0.9999,-0.0077,0.0083,0.0070,0.0174,0.0136,0.1948,0
10493988,0.9999,-0.0077,0.0083,0.0070,0.0135,0.0150,0.1744,0
10494154,0.9999,-0.0077,0.0083,0.0069,0.0106,0.0123,0.1738,0
10494321,0.9999,-0.0077,0.0083,0.0069,-0.0007,-0.0041,0.1765,0
10494488,0.9999,-0.0077,0.0083,0.0070,-0.0189,-0.0084,0.1549,0
10494655,0.9999,-0.0077,0.0083,0.0069,-0.0014,-0.0029,0.1684,0
10494821,0.9999,-0.0077,0.0083,0.0069,0.0057,0.0078,0.1733,0
10494988,0.9999,-0.0077,0.0083,0.0069,0.0224,0.0071,0.1741,0
10495155,0.9999,-0.0077,0.0083,0.0069,-0.0069,0.0031,0.1926,0
10495321,0.9999,-0.0077,0.0083,0.0069,0.0030,0.0004,0.1952,0
10495488,0.9999,-0.0077,0.0083,0.0069,-0.0126,-0.0199,0.1691,0
10495655,0.9999,-0.0077,0.0083,0.0069,-0.0018,-0.0130,0.1652,0
10495821,0.9999,-0.0077,0.0083,0.0069,-0.0017,-0.0066,0.1838,0
10495988,0.9999,-0.0076,0.0083,0.0069,0.0071,0.0287,0.1539,0
10496155,0.9999,-0.0076,0.0083,0.0069,0.0171,0.0121,0.1730,0
10496321,0.9999,-0.0076,0.0083,0.0069,-0.0046,0.0098,0.1795,0
10496488,0.9999,-0.0076,0.0083,0.0069,0.0128,0.0126,0.1660,0
10496655,0.9999,-0.0076,0.0083,0.0069,0.0067,0.0046,0.1824,0
10496821,0.9999,-0.0076,0.0083,0.0069,-0.0012,-0.0087,0.1498,0
10496988,0.9999,-0.0076,0.0083,0.0069,0.0008,0.0014,0.1842,0
10497155,0.9999,-0.0076,0.0083,0.0069,-0.0046,0.0034,0.1552,0
10497321,0.9999,-0.0076,0.0083,0.0069,0.0140,0.0074,0.2027,0
10497488,0.9999,-0.0076,0.0083,0.0069,0.0076,0.0015,0.1567,0
10497655,0.9999,-0.0076,0.0083,0.0068,-0.0025,0.0041,0.1547,0
10497821,0.9999,-0.0076,0.0083,0.0068,-0.0042,-0.0176,0.1716,0
10497988,0.9999,-0.0076,0.0083,0.0068,-0.0190,-0.0113,0.1852,0
10498155,0.9999,-0.0076,0.0083,0.0068,-0.0023,0.0018,0.1708,0
10498321,0.9999,-0.0076,0.0083,0.0068,-0.0010,0.0028,0.1670,0
10498488,0.9999,-0.0076,0.0083,0.0068,0.0006,-0.0023,0.1885,0
10498655,0.9999,-0.0076,0.0083,0.0068,0.0157,0.0146,0.1830,0
10498821,0.9999,-0.0076,0.0083,0.0068,-0.0022,-0.0100,0.1518,0
10498988,0.9999,-0.0076,0.0083,0.0068,-0.0023,0.0027,0.1552,0
10499155,0.9999,-0.0076,0.0083,0.0068,-0.0021,0.0055,0.1706,0
10499321,0.9999,-0.0076,0.0083,0.0068,-0.0096,-0.0032,0.1618,0
10499488,0.9999,-0.0076,0.0083,0.0068,0.0078,0.0090,0.1814,0
10499655,0.9999,-0.0076,0.0083,0.0068,0.0110,0.0032,0.1757,0
10499821,0.9999,-0.0076,0.0083,0.0068,0.0036,0.0003,0.1962,0
10499988,0.9999,-0.0076,0.0083,0.0068,0.0064,0.0094,0.1527,0
10500155,0.9999,-0.0076,0.0083,0.0068,-0.0020,-0.0079,0.1559,0
10500321,0.9999,-0.0076,0.0083,0.0068,-0.0164,-0.0091,0.1565,0
10500488,0.9999,-0.0076,0.0083,0.0068,-0.0022,-0.0035,0.1721,0
10500655,0.9999,-0.0076,0.0083,0.0068,0.0234,0.0079,0.1753,0
10500821,0.9999,-0.0076,0.0083,0.0068,0.0066,-0.0034,0.1881,0
10500988,0.9999,-0.0076,0.0083,0.0068,-0.0006,-0.0107,0.1784,0
10501155,0.9999,-0.0076,0.0083,0.0068,-0.0117,0.0016,0.1701,0
10501321,0.9999,-0.0076,0.0083,0.0068,0.0017,-0.0043,0.1533,0
10501488,0.9999,-0.0076,0.0083,0.0068,-0.0087,0.0092,0.1613,0
10501655,0.9999,-0.0076,0.0083,0.0067,-0.0218,-0.0031,0.1687,0
10501821,0.9999,-0.0076,0.0083,0.0067,0.0116,0.0136,0.1745,0
10501988,0.9999,-0.0076,0.0083,0.0067,0.0077,-0.0118,0.1918,0
10502155,0.9999,-0.0076,0.0083,0.0067,0.0072,0.0031,0.1684,0
10502321,0.9999,-0.0076,0.0083,0.0067,-0.0022,-0.0086,0.1507,0
10502488,0.9996,-0.0077,0.0082,0.0241,-0.0256,0.0028,0.1561,0
10502655,0.9999,-0.0075,0.0084,0.0001,-0.0212,-0.0089,0.1558,0
10502821,0.9999,-0.0075,0.0083,0.0001,-0.0091,0.0059,0.1592,0
10502988,0.9999,-0.0075,0.0083,0.0001,0.0230,-0.0032,0.1788,0
10503155,0.9999,-0.0075,0.0083,0.0000,0.0111,0.0195,0.1859,0
10503321,0.9999,-0.0075,0.0083,0.0000,0.0050,-0.0070,0.1850,0
10503488,0.9999,-0.0075,0.0083,0.0000,0.0137,-0.0056,0.1758,0
10503655,0.9999,-0.0075,0.0083,0.0000,-0.0164,0.0052,0.1412,0
10503821,0.9999,-0.0075,0.0083,0.0000,-0.0213,-0.0009,0.1590,0
10503988,0.9999,-0.0075,0.0083,0.0000,-0.0022,-0.0059,0.1654,0
10504155,0.9999,-0.0075,0.0083,0.0000,-0.0000,0.0050,0.1924,0
10504321,0.9999,-0.0075,0.0083,0.0000,0.0129,-0.0065,0.1829,0
10504488,0.9999,-0.0075,0.0083,0.0000,0.0125,0.0005,0.1759,0
10504655,0.9999,-0.0075,0.0083,-0.0000,-0.0044,-0.0085,0.1563,0
10504821,0.9999,-0.0075,0.0083,-0.0000,-0.0085,-0.0018,0.1560,0
10504988,0.9999,-0.0075,0.0083,-0.0000,-0.0171,-0.0112,0.1486,0
10505155,0.9999,-0.0075,0.0083,-0.0000,-0.0026,0.0062,0.1757,0
10505321,0.9999,-0.0075,0.0083,-0.0000,-0.0029,0.0071,0.1502,0
10505488,0.9999,-0.0075,0.0083,-0.0000,0.0080,0.0037,0.1722,0
10505655,0.9999,-0.0075,0.0083,-0.0000,0.0249,-0.0003,0.1718,0
10505821,0.9999,-0.0075,0.0083,-0.0000,0.0149,-0.0093,0.1780,0
10505988,0.9999,-0.0075,0.0083,-0.0000,-0.0033,-0.0026,0.1499,0
10506155,0.9999,-0.0075,0.0083,-0.0000,-0.0106,-0.0156,0.1809,0
10506321,0.9999,-0.0075,0.0083,-0.0000,-0.0071,-0.0097,0.1583,0
10506488,0.9999,-0.0075,0.0083,0.0000,0.0128,0.0054,0.1614,0
10506655,0.9999,-0.0075,0.0083,-0.0000,-0.0019,0.0015,0.1853,0
10506821,0.9999,-0.0075,0.0083,0.0000,0.0060,0.0114,0.1876,0
10506988,0.9999,-0.0075,0.0083,-0.0000,0.0115,-0.0007,0.1882,0
10507155,0.9999,-0.0075,0.0083,-0.0000,-0.0061,-0.0094,0.1591,0
10507321,0.9999,-0.0075,0.0083,-0.0000,-0.0079,-0.0043,0.1641,0
10507488,0.9999,-0.0075,0.0083,-0.0000,-0.0215,-0.0167,0.1510,0
10507655,0.9999,-0.0076,0.0084,0.0000,0.0000,-0.0047,0.1801,0
10507821,0.9999,-0.0076,0.0084,0.0000,0.0122,0.0184,0.1889,0
10507988,0.9999,-0.0076,0.0084,0.0000,0.0180,0.0114,0.1840,0
10508155,0.9999,-0.0076,0.0084,0.0000,0.0057,0.0078,0.1790,0
10508321,0.9999,-0.0076,0.0084,0.0000,-0.0060,0.0017,0.1795,0
10508488,0.9999,-0.0076,0.0084,0.0000,-0.0035,-0.0116,0.1620,0
10508655,0.9999,-0.0076,0.0084,0.0000,-0.0148,0.0046,0.1615,0
10508821,0.9999,-0.0076,0.0084,0.0000,-0.0078,0.0143,0.1686,0
10508988,0.9999,-0.0076,0.0084,0.0000,0.0092,0.0214,0.1711,0
10509155,0.9999,-0.0076,0.0084,0.0000,0.0077,0.0183,0.1881,0
10509321,0.9999,-0.0076,0.0084,0.0000,-0.0032,0.0244,0.1506,0
10509488,0.9999,-0.0076,0.0084,0.0000,0.0031,-0.0067,0.1656,0
10509655,0.9999,-0.0076,0.0084,0.0000,-0.0049,-0.0177,0.1583,0
10509821,0.9999,-0.0076,0.0084,0.0000,0.0138,0.0017,0.1642,0
10509988,0.9999,-0.0076,0.0084,0.0000,-0.0083,-0.0017,0.1612,0
10510155,0.9999,-0.0075,0.0084,-0.0000,0.0108,0.0132,0.1918,0
10510321,0.9999,-0.0075,0.0084,-0.0000,0.0024,0.0150,0.1609,0
10510488,0.9999,-0.0075,0.0084,-0.0000,0.0085,0.0061,0.1845,0
10510655,0.9999,-0.0075,0.0084,-0.0000,-0.0050,-0.0078,0.1650,0
10510821,0.9999,-0.0075,0.0084,-0.0000,-0.0123,-0.0011,0.1620,0
10510988,0.9999,-0.0075,0.0084,-0.0000,-0.0078,-0.0064,0.1772,0
10511155,0.9999,-0.0075,0.0084,-0.0000,0.0121,-0.0080,0.1890,0
10511322,0.9999,-0.0075,0.0084,-0.0000,0.0255,-0.0041,0.1542,0
10511488,0.9999,-0.0075,0.0084,-0.0000,0.0238,0.0020,0.1859,0
10511655,0.9999,-0.0075,0.0084,-0.0000,0.0126,0.0116,0.1776,0
10511822,0.9999,-0.0075,0.0084,-0.0000,-0.0062,-0.0157,0.1317,0
10511988,0.9999,-0.0076,0.0084,-0.0000,-0.0112,-0.0015,0.1584,0
10512155,0.9999,-0.0076,0.0084,-0.0000,-0.0003,-0.0096,0.1582,0
10512322,0.9999,-0.0076,0.0084,-0.0000,0.0059,0.0068,0.1535,0
10512488,0.9999,-0.0076,0.0084,-0.0000,0.0108,0.0076,0.1891,0
10512655,0.9999,-0.0076,0.0084,-0.0000,0.0336,0.0047,0.2238,0
10512822,0.9999,-0.0076,0.0084,-0.0000,0.0096,-0.0140,0.1852,0
10512988,0.9999,-0.0076,0.0084,-0.0000,-0.0124,-0.0062,0.1425,0
10513155,0.9999,-0.0076,0.0084,-0.0000,-0.0216,-0.0042,0.1665,0
10513322,0.9999,-0.0076,0.0084,-0.0000,-0.0192,0.0192,0.1771,0
10513488,0.9999,-0.0076,0.0084,-0.0000,0.0182,0.0355,0.1967,0
10513655,0.9999,-0.0076,0.0084,-0.0000,0.0193,0.0074,0.2193,0
10513822,0.9999,-0.0076,0.0084,-0.0000,0.0292,0.0014,0.1688,0
10513988,0.9999,-0.0076,0.0084,-0.0000,0.0093,-0.0159,0.1679,0
10514155,0.9999,-0.0076,0.0085,-0.0000,-0.0030,-0.0248,0.1885,0
10514322,0.9999,-0.0076,0.0085,-0.0000,-0.0050,0.0083,0.1281,0
10514488,0.9999,-0.0076,0.0085,-0.0000,-0.0035,0.0152,0.1666,0
10514655,0.9999,-0.0076,0.0085,-0.0000,-0.0059,-0.0072,0.1643,0
10514822,0.9999,-0.0076,0.0085,-0.0000,0.0306,0.0012,0.1316,0
10514988,0.9999,-0.0076,0.0085,-0.0001,-0.0135,0.0045,0.1846,0
10515155,0.9999,-0.0076,0.0085,-0.0000,-0.0282,0.0010,0.1423,0
10515322,0.9999,-0.0076,0.0085,-0.0000,-0.0096,0.0058,0.1423,0
10515488,0.9999,-0.0076,0.0085,-0.0000,0.0011,0.0117,0.2130,0
10515655,0.9999,-0.0076,0.0085,-0.0001,0.0156,-0.0004,0.1508,0
10515822,0.9999,-0.0076,0.0085,-0.0001,0.0197,-0.0196,0.1721,0
10515988,0.9999,-0.0076,0.0085,-0.0001,-0.0081,-0.0003,0.1955,0
10516155,0.9999,-0.0076,0.0085,-0.0001,-0.0098,0.0093,0.1578,0
10516322,0.9999,-0.0076,0.0085,-0.0001,-0.0221,0.0112,0.2064,0
10516488,0.9999,-0.0076,0.0085,-0.0001,-0.0018,0.0185,0.1793,0
10516655,0.9999,-0.0076,0.0085,-0.0001,0.0054,0.0113,0.1597,0
10516822,0.9999,-0.0076,0.0085,-0.0001,0.0217,-0.0098,0.1982,0
10516988,0.9999,-0.0076,0.0086,-0.0001,0.0106,0.0053,0.1754,0
10517155,0.9999,-0.0076,0.0086,-0.0001,0.0121,0.0050,0.1709,0
10517322,0.9999,-0.0076,0.0086,-0.0001,0.0023,-0.0030,0.1714,0
10517488,0.9999,-0.0076,0.0086,-0.0001,-0.0186,0.0074,0.1424,0
10517655,0.9999,-0.0076,0.0086,-0.0001,-0.0057,0.0092,0.1640,0
10517822,0.9999,-0.0076,0.0085,-0.0001,0.0009,-0.0011,0.1669,0
10517988,0.9999,-0.0076,0.0085,-0.0001,0.0101,-0.0207,0.1648,0
10518155,0.9999,-0.0076,0.0085,-0.0001,0.0071,-0.0011,0.1924,0
10518322,0.9999,-0.0076,0.0085,-0.0001,-0.0003,0.0093,0.1567,0
10518488,0.9999,-0.0076,0.0085,-0.0001,0.0063,-0.0053,0.1540,0
10518655,0.9999,-0.0076,0.0085,-0.0001,-0.0073,0.0041,0.1607,0
10518822,0.9999,-0.0076,0.0085,-0.0001,-0.0037,-0.0105,0.1575,0
10518988,0.9999,-0.0076,0.0085,-0.0002,-0.0067,-0.0002,0.1770,0
10519155,0.9999,-0.0076,0.0085,-0.0002,-0.0010,-0.0110,0.1608,0
10519322,0.9999,-0.0076,0.0085,-0.0002,0.0038,0.0237,0.1690,0
10519488,0.9999,-0.0076,0.0085,-0.0002,0.0038,0.0091,0.1806,0
10519655,0.9999,-0.0076,0.0085,-0.0002,0.0012,-0.0103,0.1651,0
10519822,0.9999,-0.0076,0.0085,-0.0002,0.0009,-0.0129,0.1512,0
10519988,0.9999,-0.0076,0.0085,-0.0002,-0.0070,-0.0096,0.1684,0
10520155,0.9999,-0.0076,0.0085,-0.0002,0.0045,-0.0042,0.1678,0
10520322,0.9999,-0.0076,0.0085,-0.0002,0.0001,-0.0012,0.1755,0
10520488,0.9999,-0.0076,0.0085,-0.0002,0.0035,0.0243,0.1782,0
10520655,0.9999,-0.0076,0.0085,-0.0002,0.0106,0.0030,0.1515,0
10520822,0.9999,-0.0076,0.0085,-0.0002,-0.0002,-0.0213,0.1532,0
10520988,0.9999,-0.0076,0.0085,-0.0002,-0.0189,0.0031,0.1594,0
10521155,0.9999,-0.0076,0.0085,-0.0002,0.0006,-0.0067,0.1494,0
10521322,0.9999,-0.0076,0.0085,-0.0002,-0.0063,0.0066,0.1715,0
10521488,0.9999,-0.0076,0.0085,-0.0002,0.0002,0.0045,0.1758,0
10521655,0.9999,-0.0076,0.0085,-0.0002,0.0097,0.0183,0.1481,0
10521822,0.9999,-0.0076,0.0085,-0.0002,0.0043,0.0167,0.1858,0
10521988,0.9999,-0.0076,0.0085,-0.0002,-0.0053,0.0070,0.1790,0
10522155,0.9999,-0.0076,0.0085,-0.0002,0.0005,-0.0095,0.1515,0
10522322,0.9999,-0.0076,0.0085,-0.0002,-0.0056,0.0015,0.1916,0
10522488,0.9999,-0.0076,0.0085,-0.0002,0.0023,0.0076,0.1757,0
10522655,0.9999,-0.0076,0.0085,-0.0002,0.0072,0.0160,0.1651,0
10522822,0.9999,-0.0076,0.0085,-0.0002,0.0068,0.0108,0.1624,0
10522988,0.9999,-0.0076,0.0085,-0.0002,0.0073,0.0027,0.1622,0
10523155,0.9999,-0.0076,0.0085,-0.0002,0.0031,-0.0143,0.1912,0
10523322,0.9999,-0.0076,0.0085,-0.0002,-0.0040,-0.0072,0.1822,0
10523488,0.9999,-0.0076,0.0085,-0.0002,0.0135,-0.0025,0.1739,0
10523655,0.9999,-0.0076,0.0085,-0.0002,-0.0002,0.0084,0.1960,0
10523822,0.9999,-0.0076,0.0085,-0.0002,-0.0084,0.0067,0.1925,0
10523988,0.9999,-0.0076,0.0085,-0.0002,0.0080,0.0016,0.1538,0
10524155,0.9999,-0.0076,0.0085,-0.0002,-0.0127,-0.0079,0.1863,0
10524322,0.9999,-0.0076,0.0085,-0.0002,0.0085,-0.0052,0.1693,0
10524488,0.9999,-0.0076,0.0085,-0.0002,-0.0031,0.0147,0.1789,0
10524655,0.9999,-0.0076,0.0085,-0.0002,-0.0036,-0.0029,0.1630,0
10524822,0.9999,-0.0076,0.0085,-0.0002,0.0000,0.0112,0.1729,0
10524988,0.9999,-0.0076,0.0085,-0.0002,0.0006,0.0035,0.1916,0
10525155,0.9999,-0.0076,0.0085,-0.0002,0.0051,0.0024,0.1615,0
10525322,0.9999,-0.0076,0.0085,-0.0002,0.0249,0.0014,0.1642,0
10525488,0.9999,-0.0076,0.0086,-0.0003,0.0132,-0.0039,0.1921,0
10525655,0.9999,-0.0076,0.0086,-0.0003,-0.0058,0.0043,0.1580,0
10525822,0.9999,-0.0076,0.0086,-0.0003,0.0051,0.0061,0.1593,0
10525988,0.9999,-0.0076,0.0086,-0.0003,0.0011,0.0088,0.1838,0
10526155,0.9999,-0.0076,0.0086,-0.0003,0.0195,-0.0020,0.1576,0
10526322,0.9999,-0.0076,0.0086,-0.0002,0.0043,-0.0155,0.1837,0
10526488,0.9999,-0.0076,0.0086,-0.0002,-0.0013,0.0019,0.1602,0
10526655,0.9999,-0.0076,0.0086,-0.0002,-0.0021,0.0010,0.1737,0
10526822,0.9999,-0.0076,0.0086,-0.0002,-0.0101,-0.0004,0.1648,0
10526988,0.9999,-0.0076,0.0085,-0.0002,-0.0044,0.0040,0.1665,0
10527155,0.9999,-0.0076,0.0085,-0.0002,0.0055,-0.0014,0.1819,0
10527322,0.9999,-0.0076,0.0085,-0.0002,0.0042,0.0071,0.2013,0
10527488,0.9999,-0.0076,0.0086,-0.0002,0.0081,0.0022,0.1852,0
10527655,0.9999,-0.0076,0.0086,-0.0002,-0.0017,-0.0002,0.1806,0
10527822,0.9999,-0.0077,0.0086,-0.0002,-0.0030,0.0036,0.1677,0
10527989,0.9999,-0.0076,0.0086,-0.0002,0.0077,0.0027,0.1426,0
10528155,0.9999,-0.0076,0.0086,-0.0002,-0.0087,0.0000,0.1679,0
10528322,0.9999,-0.0076,0.0086,-0.0002,0.0114,0.0048,0.1489,0
10528489,0.9999,-0.0076,0.0086,-0.0002,0.0056,0.0013,0.1610,0
10528655,0.9999,-0.0076,0.0086,-0.0002,0.0132,0.0001,0.1615,0
10528822,0.9999,-0.0076,0.0086,-0.0002,0.0055,0.0040,0.1611,0
10528989,0.9999,-0.0076,0.0086,-0.0003,-0.0061,0.0035,0.1712,0
10529155,0.9999,-0.0076,0.0086,-0.0002,-0.0087,0.0167,0.1669,0
10529322,0.9999,-0.0076,0.0086,-0.0002,-0.0208,0.0079,0.1697,0
10529489,0.9999,-0.0076,0.0086,-0.0002,0.0059,-0.0043,0.1693,0
10529655,0.9999,-0.0076,0.0086,-0.0003,0.0077,-0.0062,0.1473,0
10529822,0.9999,-0.0076,0.0086,-0.0002,-0.0079,-0.0019,0.1702,0
10529989,0.9999,-0.0076,0.0086,-0.0003,0.0058,0.0089,0.1721,0
10530155,0.9999,-0.0076,0.0086,-0.0003,-0.0082,0.0035,0.1490,0
10530322,0.9999,-0.0076,0.0086,-0.0003,0.0103,0.0041,0.1671,0
10530489,0.9999,-0.0077,0.0086,-0.0003,0.0099,0.0014,0.1724,0
10530655,0.9999,-0.0077,0.0086,-0.0003,0.0073,-0.0047,0.1791,0
10530822,0.9999,-0.0077,0.0086,-0.0003,-0.0105,-0.0044,0.1735,0
10530989,0.9999,-0.0077,0.0086,-0.0003,0.0164,0.0048,0.1769,0
10531155,0.9999,-0.0077,0.0086,-0.0003,-0.0166,0.0006,0.1546,0
10531322,0.9999,-0.0077,0.0086,-0.0003,-0.0068,-0.0037,0.1633,0
10531489,0.9999,-0.0077,0.0086,-0.0003,-0.0103,-0.0013,0.1684,0
10531655,0.9999,-0.0077,0.0086,-0.0003,-0.0001,-0.0015,0.1595,0
10531822,0.9999,-0.0077,0.0086,-0.0003,0.0074,0.0004,0.1514,0
10531989,0.9999,-0.0077,0.0086,-0.0003,0.0003,-0.0002,0.1779,0
10532155,0.9999,-0.0077,0.0086,-0.0003,-0.0019,-0.0080,0.1803,0
10532322,0.9999,-0.0077,0.0086,-0.0003,0.0011,-0.0033,0.1862,0
10532489,0.9999,-0.0077,0.0086,-0.0003,-0.0044,0.0043,0.1761,0
10532655,0.9999,-0.0077,0.0086,-0.0003,-0.0028,-0.0043,0.1588,0
10532822,0.9999,-0.0077,0.0086,-0.0003,0.0163,-0.0123,0.1791,0
10532989,0.9999,-0.0077,0.0086,-0.0003,0.0090,-0.0045,0.1853,0
10533155,0.9999,-0.0077,0.0086,-0.0003,0.0122,0.0048,0.1779,0
10533322,0.9999,-0.0077,0.0086,-0.0003,0.0098,-0.0066,0.1706,0
10533489,0.9999,-0.0077,0.0086,-0.0003,0.0173,-0.0063,0.1659,0
10533655,0.9999,-0.0077,0.0086,-0.0003,0.0070,0.0010,0.1740,0
10533822,0.9999,-0.0077,0.0086,-0.0003,0.0004,0.0135,0.1875,0
10533989,0.9999,-0.0077,0.0086,-0.0003,0.0060,-0.0031,0.1693,0
10534155,0.9999,-0.0077,0.0086,-0.0003,-0.0023,-0.0024,0.1649,0
10534322,0.9999,-0.0077,0.0086,-0.0003,0.0044,0.0109,0.1753,0
10534489,0.9999,-0.0077,0.0086,-0.0003,0.0025,0.0063,0.1674,0
10534655,0.9999,-0.0076,0.0086,-0.0003,-0.0043,0.0009,0.1567,0
10534822,0.9999,-0.0076,0.0086,-0.0003,0.0048,-0.0183,0.1779,0
10534989,0.9999,-0.0076,0.0086,-0.0003,0.0058,-0.0046,0.1527,0
10535155,0.9999,-0.0076,0.0086,-0.0003,0.0168,-0.0004,0.1543,0
10535322,0.9999,-0.0076,0.0086,-0.0003,0.0040,0.0123,0.1745,0
10535489,0.9999,-0.0076,0.0086,-0.0003,0.0063,0.0089,0.1585,0
10535655,0.9999,-0.0076,0.0086,-0.0003,0.0049,0.0121,0.1744,0
10535822,0.9999,-0.0076,0.0086,-0.0003,-0.0087,0.0051,0.1746,0
10535989,0.9999,-0.0076,0.0086,-0.0003,0.0031,-0.0053,0.1491,0
10536155,0.9999,-0.0076,0.0086,-0.0003,-0.0022,0.0040,0.1575,0
10536322,0.9999,-0.0076,0.0086,-0.0003,-0.0018,0.0007,0.1771,0
10536489,0.9999,-0.0076,0.0086,-0.0003,0.0028,0.0087,0.1692,0
10536655,0.9999,-0.0076,0.0086,-0.0003,0.0095,-0.0075,0.1526,0
10536822,0.9999,-0.0076,0.0086,-0.0003,-0.0085,0.0108,0.1876,0
10536989,0.9999,-0.0076,0.0086,-0.0003,0.0021,0.0040,0.1530,0
10537155,0.9999,-0.0076,0.0086,-0.0003,0.0100,-0.0183,0.1758,0
10537322,0.9999,-0.0076,0.0086,-0.0003,0.0032,-0.0014,0.1719,0
10537489,0.9999,-0.0076,0.0086,-0.0003,0.0034,-0.0012,0.1794,0
10537655,0.9999,-0.0076,0.0086,-0.0003,0.0107,0.0159,0.1724,0
10537822,0.9999,-0.0077,0.0086,-0.0003,0.0026,0.0017,0.1567,0
10537989,0.9999,-0.0077,0.0086,-0.0003,-0.0044,-0.0033,0.1677,0
10538155,0.9999,-0.0077,0.0086,-0.0003,0.0028,0.0065,0.1796,0
10538322,0.9999,-0.0076,0.0086,-0.0003,0.0005,-0.0049,0.1567,0
10538489,0.9999,-0.0076,0.0086,-0.0003,-0.0099,-0.0009,0.1821,0
10538655,0.9999,-0.0076,0.0086,-0.0003,0.0071,0.0044,0.1749,0
10538822,0.9999,-0.0077,0.0086,-0.0003,-0.0078,0.0129,0.1651,0
10538989,0.9999,-0.0077,0.0086,-0.0003,0.0044,0.0082,0.1716,0
10539155,0.9999,-0.0077,0.0086,-0.0003,0.0021,0.0060,0.1690,0
10539322,0.9999,-0.0077,0.0086,-0.0003,-0.0103,-0.0005,0.1708,0
10539489,0.9999,-0.0077,0.0086,-0.0003,-0.0041,-0.0023,0.1742,0
10539655,0.9999,-0.0077,0.0086,-0.0003,-0.0050,-0.0069,0.1689,0
10539822,0.9999,-0.0077,0.0086,-0.0004,-0.0026,-0.0042,0.1756,0
10539989,0.9999,-0.0077,0.0086,-0.0004,-0.0152,0.0129,0.1764,0
10540155,0.9999,-0.0077,0.0086,-0.0004,0.0017,0.0042,0.1763,0
10540322,0.9999,-0.0077,0.0086,-0.0004,-0.0017,-0.0008,0.1912,0
10540489,0.9999,-0.0077,0.0086,-0.0004,0.0040,-0.0124,0.1801,0
10540655,0.9999,-0.0076,0.0086,-0.0003,0.0018,0.0028,0.1701,0
10540822,0.9999,-0.0077,0.0086,-0.0003,0.0158,-0.0166,0.1779,0
10540989,0.9999,-0.0077,0.0086,-0.0003,0.0161,0.0029,0.1769,0
10541155,0.9999,-0.0077,0.0086,-0.0003,0.0203,-0.0064,0.1783,0
10541322,0.9999,-0.0077,0.0086,-0.0003,0.0090,0.0070,0.1719,0
10541489,0.9999,-0.0077,0.0086,-0.0003,0.0064,-0.0080,0.1810,0
10541655,0.9999,-0.0077,0.0086,-0.0003,0.0026,0.0113,0.1620,0
10541822,0.9999,-0.0077,0.0086,-0.0003,0.0063,0.0082,0.1783,0
10541989,0.9999,-0.0077,0.0086,-0.0004,-0.0119,0.0010,0.1909,0
10542155,0.9999,-0.0077,0.0086,-0.0004,-0.0039,-0.0021,0.1663,0
10542322,0.9999,-0.0077,0.0086,-0.0004,-0.0048,-0.0007,0.1656,0
10542489,0.9999,-0.0077,0.0086,-0.0004,0.0060,0.0171,0.1643,0
10542655,0.9999,-0.0077,0.0087,-0.0004,0.0022,-0.0032,0.1813,0
10542822,0.9999,-0.0077,0.0087,-0.0004,-0.0009,0.0085,0.1629,0
10542989,0.9999,-0.0077,0.0087,-0.0004,-0.0013,-0.0074,0.1813,0
10543155,0.9999,-0.0077,0.0087,-0.0004,0.0062,-0.0141,0.1837,0
10543322,0.9999,-0.0077,0.0086,-0.0004,-0.0121,-0.0002,0.1642,0
10543489,0.9999,-0.0077,0.0086,-0.0004,-0.0055,-0.0012,0.1532,0
10543655,0.9999,-0.0077,0.0086,-0.0004,0.0022,0.0106,0.1926,0
10543822,0.9999,-0.0077,0.0086,-0.0004,0.0108,0.0050,0.1851,0
10543989,0.9999,-0.0077,0.0086,-0.0004,0.0202,0.0024,0.1629,0
10544155,0.9999,-0.0077,0.0086,-0.0004,-0.0068,0.0009,0.1710,0
10544322,0.9999,-0.0077,0.0086,-0.0004,0.0148,-0.0040,0.1693,0
10544489,0.9999,-0.0077,0.0086,-0.0004,0.0010,-0.0024,0.1574,0
10544656,0.9999,-0.0077,0.0086,-0.0004,0.0179,-0.0017,0.1721,0
10544822,0.9999,-0.0077,0.0087,-0.0004,-0.0010,-0.0009,0.1719,0
10544989,0.9999,-0.0077,0.0087,-0.0004,-0.0052,0.0025,0.1654,0
10545156,0.9999,-0.0077,0.0087,-0.0004,-0.0049,-0.0178,0.1750,0
10545322,0.9999,-0.0077,0.0087,-0.0004,-0.0042,-0.0209,0.1800,0
10545489,0.9999,-0.0077,0.0087,-0.0004,0.0118,-0.0082,0.1541,0
10545656,0.9999,-0.0077,0.0087,-0.0004,0.0077,-0.0086,0.1695,0
10545822,0.9999,-0.0077,0.0087,-0.0004,-0.0037,0.0096,0.1621,0
10545989,0.9999,-0.0077,0.0087,-0.0004,0.0137,0.0061,0.1665,0
10546156,0.9999,-0.0077,0.0087,-0.0004,0.0118,0.0033,0.1827,0
10546322,0.9999,-0.0077,0.0087,-0.0004,0.0044,0.0004,0.1985,0
10546489,0.9999,-0.0076,0.0087,-0.0004,0.0001,-0.0056,0.1611,0
10546656,0.9999,-0.0077,0.0087,-0.0004,0.0047,0.0024,0.1774,0
10546822,0.9999,-0.0077,0.0087,-0.0004,-0.0027,0.0012,0.1630,0
10546989,0.9999,-0.0077,0.0087,-0.0004,0.0073,-0.0054,0.1565,0
10547156,0.9999,-0.0077,0.0087,-0.0004,0.0046,-0.0083,0.1628,0
10547322,0.9999,-0.0077,0.0087,-0.0004,-0.0011,0.0046,0.1806,0
10547489,0.9999,-0.0077,0.0087,-0.0004,-0.0023,0.0046,0.1655,0
10547656,0.9999,-0.0076,0.0085,-0.0004,-0.0011,-0.0023,0.1710,0
10547822,0.9999,-0.0076,0.0085,-0.0004,0.0038,0.0037,0.1792,0
10547989,0.9999,-0.0076,0.0085,-0.0004,-0.0064,-0.0049,0.1703,0
10548156,0.9999,-0.0076,0.0085,-0.0004,0.0077,-0.0015,0.1631,0
10548322,0.9999,-0.0076,0.0085,-0.0004,0.0030,-0.0115,0.1825,0
10548489,0.9999,-0.0076,0.0085,-0.0004,0.0024,0.0033,0.1694,0
10548656,0.9999,-0.0076,0.0085,-0.0004,0.0042,0.0053,0.1662,0
10548822,0.9999,-0.0076,0.0085,-0.0004,0.0024,0.0014,0.1685,0
10548989,0.9999,-0.0076,0.0085,-0.0004,-0.0031,0.0034,0.1743,0
10549156,0.9999,-0.0076,0.0085,-0.0004,0.0012,0.0047,0.1689,0
10549322,0.9999,-0.0076,0.0085,-0.0004,0.0017,0.0234,0.1937,0
10549489,0.9999,-0.0076,0.0085,-0.0004,0.0017,0.0158,0.1640,0
10549656,0.9999,-0.0076,0.0085,-0.0004,-0.0145,0.0105,0.1779,0
10549822,0.9999,-0.0076,0.0085,-0.0004,0.0065,-0.0144,0.1655,0
10549989,0.9999,-0.0076,0.0085,-0.0004,0.0007,-0.0078,0.1693,0
10550156,0.9999,-0.0076,0.0085,-0.0004,0.0019,0.0136,0.1599,0
10550322,0.9999,-0.0076,0.0085,-0.0004,-0.0117,0.0054,0.1531,0
10550489,0.9999,-0.0077,0.0085,-0.0004,-0.0082,0.0008,0.1818,0
10550656,0.9999,-0.0077,0.0085,-0.0004,-0.0029,0.0025,0.1949,0
10550822,0.9999,-0.0077,0.0085,-0.0004,0.0131,0.0093,0.1545,0
10550989,0.9999,-0.0077,0.0085,-0.0004,-0.0001,0.0136,0.1791,0
10551156,0.9999,-0.0077,0.0085,-0.0004,-0.0002,0.0004,0.1749,0
10551322,0.9999,-0.0077,0.0085,-0.0004,-0.0023,0.0171,0.1554,0
10551489,0.9999,-0.0077,0.0085,-0.0004,0.0010,0.0007,0.1768,0
10551656,0.9999,-0.0077,0.0085,-0.0004,0.0019,0.0077,0.1818,0
10551822,0.9999,-0.0077,0.0085,-0.0004,0.0004,-0.0001,0.1538,0
10551989,0.9999,-0.0077,0.0085,-0.0004,0.0062,-0.0060,0.1506,0
10552156,0.9999,-0.0077,0.0085,-0.0004,0.0031,0.0045,0.1672,0
10552322,0.9999,-0.0077,0.0085,-0.0004,0.0005,-0.0090,0.1646,0
10552489,0.9999,-0.0077,0.0085,-0.0005,-0.0094,0.0179,0.1721,0
10552656,0.9999,-0.0077,0.0085,-0.0004,-0.0037,0.0079,0.1577,0
10552822,0.9999,-0.0077,0.0085,-0.0004,-0.0120,-0.0017,0.1579,0
10552989,0.9999,-0.0077,0.0085,-0.0004,-0.0036,-0.0163,0.1546,0
10553156,0.9999,-0.0077,0.0085,-0.0005,-0.0025,-0.0065,0.1579,0
10553322,0.9999,-0.0077,0.0085,-0.0005,-0.0051,-0.0001,0.1723,0
10553489,0.9999,-0.0077,0.0085,-0.0005,0.0031,-0.0151,0.1576,0
10553656,0.9999,-0.0077,0.0085,-0.0005,0.0021,0.0060,0.1644,0
10553822,0.9999,-0.0077,0.0085,-0.0005,0.0104,-0.0018,0.1739,0
10553989,0.9999,-0.0077,0.0085,-0.0005,-0.0044,0.0021,0.1749,0
10554156,0.9999,-0.0077,0.0085,-0.0005,-0.0062,-0.0049,0.1574,0
10554322,0.9999,-0.0077,0.0085,-0.0005,-0.0032,0.0108,0.1758,0
10554489,0.9999,-0.0077,0.0085,-0.0005,-0.0081,0.0049,0.1811,0
10554656,0.9999,-0.0077,0.0085,-0.0005,-0.0045,0.0025,0.1580,0
10554822,0.9999,-0.0077,0.0085,-0.0005,0.0075,-0.0002,0.1687,0
10554989,0.9999,-0.0077,0.0085,-0.0005,0.0051,0.0063,0.1621,0
10555156,0.9999,-0.0077,0.0085,-0.0005,0.0045,0.0127,0.1674,0
10555322,0.9999,-0.0077,0.0085,-0.0005,-0.0087,-0.0081,0.1672,0
10555489,0.9999,-0.0077,0.0085,-0.0005,0.0019,-0.0063,0.1661,0
10555656,0.9999,-0.0077,0.0085,-0.0005,-0.0212,0.0064,0.1705,0
10555822,0.9999,-0.0077,0.0085,-0.0005,-0.0050,-0.0017,0.1850,0
10555989,0.9999,-0.0077,0.0085,-0.0005,-0.0030,0.0098,0.1657,0
10556156,0.9999,-0.0077,0.0085,-0.0005,-0.0057,0.0013,0.1786,0
10556322,0.9999,-0.0077,0.0085,-0.0005,0.0013,0.0003,0.1745,0
10556489,0.9999,-0.0077,0.0085,-0.0005,-0.0009,-0.0005,0.1581,0
10556656,0.9999,-0.0077,0.0085,-0.0005,-0.0092,-0.0048,0.1845,0
10556822,0.9999,-0.0077,0.0085,-0.0005,-0.0017,-0.0037,0.1822,0
10556989,0.9999,-0.0077,0.0085,-0.0005,-0.0010,-0.0084,0.1840,0
10557156,0.9999,-0.0077,0.0085,-0.0005,-0.0127,0.0000,0.1610,0
10557322,0.9999,-0.0077,0.0085,-0.0005,-0.0033,0.0026,0.1631,0
10557489,0.9999,-0.0077,0.0085,-0.0005,-0.0061,0.0125,0.1811,0
10557656,0.9999,-0.0077,0.0085,-0.0005,-0.0073,-0.0048,0.1834,0
10557822,0.9999,-0.0077,0.0085,-0.0005,-0.0144,-0.0066,0.1790,0
10557989,0.9999,-0.0077,0.0085,-0.0005,-0.0001,-0.0038,0.1756,0
10558156,0.9999,-0.0077,0.0085,-0.0005,-0.0024,-0.0017,0.1792,0
10558322,0.9999,-0.0077,0.0085,-0.0005,-0.0051,0.0000,0.1722,0
10558489,0.9999,-0.0077,0.0085,-0.0005,-0.0003,-0.0011,0.1635,0
10558656,0.9999,-0.0076,0.0085,-0.0005,-0.0043,0.0029,0.1795,0
10558822,0.9999,-0.0076,0.0085,-0.0005,-0.0013,-0.0069,0.1735,0
10558989,0.9999,-0.0076,0.0085,-0.0005,-0.0138,0.0074,0.1696,0
10559156,0.9999,-0.0076,0.0085,-0.0005,0.0133,-0.0114,0.1751,0
10559322,0.9999,-0.0077,0.0085,-0.0005,0.0156,-0.0047,0.1662,0
10559489,0.9999,-0.0077,0.0085,-0.0005,0.0014,-0.0091,0.1847,0
10559656,0.9999,-0.0077,0.0085,-0.0005,-0.0083,-0.0030,0.1814,0
10559822,0.9999,-0.0077,0.0085,-0.0005,-0.0045,0.0059,0.1805,0
10559989,0.9999,-0.0077,0.0085,-0.0005,-0.0011,-0.0148,0.1753,0
10560156,0.9999,-0.0077,0.0085,-0.0005,0.0014,0.0143,0.1815,0
10560322,0.9999,-0.0077,0.0085,-0.0005,-0.0010,0.0051,0.1923,0
10560489,0.9999,-0.0077,0.0085,-0.0005,0.0014,0.0026,0.1733,0
10560656,0.9999,-0.0077,0.0085,-0.0005,0.0017,0.0016,0.1757,0
10560822,0.9999,-0.0077,0.0085,-0.0005,-0.0144,0.0032,0.1919,0
10560989,0.9999,-0.0077,0.0085,-0.0005,-0.0015,0.0113,0.1694,0
10561156,0.9999,-0.0077,0.0085,-0.0005,-0.0131,-0.0042,0.1630,0
10561323,0.9999,-0.0077,0.0085,-0.0005,-0.0121,-0.0062,0.1790,0
10561489,0.9999,-0.0077,0.0085,-0.0005,-0.0041,0.0003,0.1692,0
10561656,0.9999,-0.0077,0.0085,-0.0005,-0.0111,0.0021,0.1763,0
10561823,0.9999,-0.0077,0.0085,-0.0005,-0.0151,-0.0128,0.1791,0
10561989,0.9999,-0.0077,0.0085,-0.0005,0.0019,-0.0143,0.1664,0
10562156,0.9999,-0.0077,0.0085,-0.0005,0.0179,0.0037,0.1726,0
10562323,0.9999,-0.0077,0.0085,-0.0005,-0.0076,-0.0056,0.1862,0
10562489,0.9999,-0.0076,0.0085,-0.0005,0.0053,-0.0059,0.1527,0
10562656,0.9999,-0.0076,0.0085,-0.0005,0.0113,0.0180,0.1885,0
10562823,0.9999,-0.0077,0.0085,-0.0005,0.0032,-0.0028,0.1670,0
10562989,0.9999,-0.0077,0.0085,-0.0005,0.0027,-0.0003,0.1674,0
10563156,0.9999,-0.0076,0.0085,-0.0005,-0.0051,-0.0074,0.1843,0
10563323,0.9999,-0.0076,0.0085,-0.0005,-0.0035,0.0033,0.1692,0
10563489,0.9999,-0.0077,0.0085,-0.0005,-0.0091,0.0102,0.1836,0
10563656,0.9999,-0.0077,0.0085,-0.0005,0.0061,0.0019,0.1777,0
10563823,0.9999,-0.0076,0.0085,-0.0005,-0.0119,-0.0080,0.1827,0
10563989,0.9999,-0.0076,0.0085,-0.0005,-0.0191,-0.0077,0.1459,0
10564156,0.9999,-0.0076,0.0085,-0.0005,-0.0013,0.0187,0.1726,0
10564323,0.9999,-0.0076,0.0085,-0.0005,-0.0009,-0.0059,0.1752,0
10564489,0.9999,-0.0076,0.0085,-0.0005,0.0000,-0.0033,0.1798,0
10564656,0.9999,-0.0076,0.0085,-0.0005,-0.0090,-0.0058,0.1698,0
10564823,0.9999,-0.0076,0.0085,-0.0005,-0.0014,-0.0111,0.1635,0
10564989,0.9999,-0.0076,0.0085,-0.0005,-0.0055,-0.0088,0.1707,0
10565156,0.9999,-0.0076,0.0085,-0.0005,0.0046,-0.0047,0.1674,0
10565323,0.9999,-0.0076,0.0085,-0.0005,-0.0136,-0.0021,0.1912,0
10565489,0.9999,-0.0076,0.0085,-0.0005,0.0043,-0.0042,0.1825,0
10565656,0.9999,-0.0076,0.0085,-0.0005,0.0137,-0.0020,0.1702,0
10565823,0.9999,-0.0076,0.0085,-0.0005,-0.0002,-0.0050,0.1798,0
10565989,0.9999,-0.0076,0.0085,-0.0005,-0.0137,-0.0121,0.1873,0
10566156,0.9999,-0.0076,0.0085,-0.0005,-0.0060,-0.0041,0.1683,0
10566323,0.9999,-0.0076,0.0085,-0.0005,0.0032,0.0010,0.1669,0
10566489,0.9999,-0.0076,0.0086,-0.0005,-0.0146,0.0166,0.1673,0
10566656,0.9999,-0.0076,0.0086,-0.0005,-0.0052,-0.0136,0.1830,0
10566823,0.9999,-0.0076,0.0086,-0.0005,-0.0088,-0.0066,0.1903,0
10566989,0.9999,-0.0076,0.0086,-0.0006,0.0009,-0.0021,0.1877,0
10567156,0.9999,-0.0076,0.0086,-0.0005,-0.0028,0.0085,0.1801,0
10567323,0.9999,-0.0076,0.0086,-0.0005,0.0050,-0.0115,0.1923,0
10567489,0.9999,-0.0076,0.0086,-0.0005,0.0011,-0.0125,0.1752,0
10567656,0.9999,-0.0076,0.0085,-0.0005,-0.0049,0.0040,0.1617,0
10567823,0.9999,-0.0076,0.0085,-0.0005,-0.0050,-0.0002,0.1655,0
10567989,0.9999,-0.0076,0.0085,-0.0005,-0.0091,0.0064,0.1761,0
10568156,0.9999,-0.0076,0.0085,-0.0005,0.0061,-0.0057,0.1866,0
10568323,0.9999,-0.0076,0.0085,-0.0005,0.0021,-0.0015,0.1780,0
10568489,0.9999,-0.0076,0.0085,-0.0005,-0.0028,0.0045,0.1806,0
10568656,0.9999,-0.0076,0.0085,-0.0005,0.0085,-0.0073,0.1877,0
10568823,0.9999,-0.0076,0.0085,-0.0005,-0.0029,-0.0050,0.1709,0
10568989,0.9999,-0.0076,0.0085,-0.0005,-0.0074,0.0039,0.1912,0
10569156,0.9999,-0.0076,0.0085,-0.0005,-0.0032,0.0006,0.1791,0
10569323,0.9999,-0.0076,0.0085,-0.0005,-0.0081,0.0061,0.1553,0
10569489,0.9999,-0.0076,0.0086,-0.0005,-0.0046,0.0114,0.1604,0
10569656,0.9999,-0.0076,0.0085,-0.0005,0.0112,0.0087,0.1800,0
10569823,0.9999,-0.0076,0.0085,-0.0005,0.0051,0.0001,0.1796,0
10569989,0.9999,-0.0076,0.0085,-0.0005,-0.0018,-0.0071,0.1809,0
10570156,0.9999,-0.0076,0.0086,-0.0005,-0.0094,-0.0044,0.1695,0
10570323,0.9999,-0.0076,0.0086,-0.0005,0.0061,-0.0155,0.1785,0
10570489,0.9999,-0.0076,0.0086,-0.0005,0.0014,0.0022,0.1767,0
10570656,0.9999,-0.0076,0.0086,-0.0005,-0.0047,-0.0091,0.1665,0
10570823,0.9999,-0.0076,0.0086,-0.0005,0.0044,0.0012,0.1914,0
10570989,0.9999,-0.0076,0.0086,-0.0005,0.0006,-0.0026,0.1769,0
10571156,0.9999,-0.0076,0.0086,-0.0005,-0.0081,-0.0016,0.1591,0
10571323,0.9999,-0.0076,0.0086,-0.0005,0.0121,-0.0028,0.1787,0
10571489,0.9999,-0.0076,0.0086,-0.0005,-0.0111,-0.0074,0.1760,0
10571656,0.9999,-0.0076,0.0086,-0.0005,0.0003,-0.0066,0.1727,0
10571823,0.9999,-0.0076,0.0086,-0.0005,0.0104,0.0054,0.1673,0
10571989,0.9999,-0.0076,0.0086,-0.0005,-0.0012,-0.0064,0.1617,0
10572156,0.9999,-0.0076,0.0086,-0.0005,0.0072,-0.0010,0.1788,0
10572323,0.9999,-0.0076,0.0086,-0.0005,-0.0000,-0.0158,0.1793,0
10572489,0.9999,-0.0076,0.0086,-0.0005,-0.0049,-0.0040,0.1827,0
10572656,0.9999,-0.0076,0.0085,-0.0005,0.0027,0.0016,0.1788,0
10572823,0.9999,-0.0076,0.0085,-0.0005,-0.0135,0.0075,0.1741,0
10572989,0.9999,-0.0076,0.0085,-0.0005,-0.0093,-0.0029,0.1657,0
10573156,0.9999,-0.0076,0.0085,-0.0006,0.0079,0.0089,0.1652,0
10573323,0.9999,-0.0076,0.0086,-0.0006,-0.0013,0.0032,0.1590,0
10573489,0.9999,-0.0076,0.0085,-0.0006,0.0065,0.0083,0.1790,0
10573656,0.9999,-0.0076,0.0086,-0.0006,0.0040,-0.0052,0.1714,0
10573823,0.9999,-0.0076,0.0086,-0.0006,-0.0048,-0.0005,0.1734,0
10573989,0.9999,-0.0076,0.0085,-0.0006,-0.0022,0.0047,0.1768,0
10574156,0.9999,-0.0076,0.0085,-0.0006,0.0035,-0.0180,0.1748,0
10574323,0.9999,-0.0076,0.0086,-0.0006,0.0076,-0.0043,0.1676,0
10574489,0.9999,-0.0076,0.0085,-0.0006,0.0067,-0.0162,0.1632,0
10574656,0.9999,-0.0076,0.0085,-0.0006,-0.0016,-0.0046,0.1765,0
10574823,0.9999,-0.0076,0.0085,-0.0006,0.0021,0.0000,0.1668,0
10574989,0.9999,-0.0076,0.0085,-0.0006,0.0026,-0.0060,0.1529,0
10575156,0.9999,-0.0076,0.0085,-0.0006,0.0026,-0.0057,0.1686,0
10575323,0.9999,-0.0076,0.0086,-0.0006,-0.0108,-0.0083,0.1749,0
10575489,0.9999,-0.0076,0.0085,-0.0005,-0.0007,-0.0010,0.1619,0
10575656,0.9999,-0.0076,0.0086,-0.0006,-0.0081,-0.0047,0.1770,0
10575823,0.9999,-0.0076,0.0086,-0.0006,-0.0079,0.0088,0.1729,0
10575989,0.9999,-0.0076,0.0086,-0.0006,-0.0031,0.0044,0.1871,0
10576156,0.9999,-0.0076,0.0086,-0.0006,-0.0089,-0.0023,0.1687,0
10576323,0.9999,-0.0076,0.0086,-0.0006,-0.0003,-0.0034,0.1741,0
10576489,0.9999,-0.0076,0.0086,-0.0006,0.0020,-0.0093,0.1663,0
10576656,0.9999,-0.0076,0.0086,-0.0006,0.0113,-0.0011,0.1796,0
10576823,0.9999,-0.0076,0.0086,-0.0006,0.0088,0.0073,0.1689,0
10576989,0.9999,-0.0076,0.0086,-0.0006,-0.0032,-0.0154,0.1796,0
10577156,0.9999,-0.0076,0.0086,-0.0006,0.0043,-0.0010,0.1582,0
10577323,0.9999,-0.0076,0.0086,-0.0006,0.0047,-0.0033,0.1623,0
10577489,0.9999,-0.0076,0.0086,-0.0006,0.0034,0.0064,0.1652,0
10577656,0.9999,-0.0076,0.0086,-0.0006,0.0078,-0.0047,0.1490,0
10577823,0.9999,-0.0076,0.0086,-0.0006,-0.0104,-0.0123,0.1803,0
10577990,0.9999,-0.0076,0.0086,-0.0006,-0.0030,-0.0035,0.1838,0
10578156,0.9999,-0.0076,0.0086,-0.0006,0.0007,-0.0123,0.1539,0
10578323,0.9999,-0.0076,0.0086,-0.0006,-0.0114,0.0043,0.1652,0
10578490,0.9999,-0.0076,0.0086,-0.0006,0.0140,-0.0090,0.1691,0
10578656,0.9999,-0.0076,0.0086,-0.0006,0.0075,-0.0029,0.1734,0
10578823,0.9999,-0.0076,0.0086,-0.0006,-0.0061,-0.0048,0.1967,0
10578990,0.9999,-0.0076,0.0086,-0.0006,-0.0023,-0.0063,0.1656,0
10579156,0.9999,-0.0076,0.0086,-0.0006,0.0051,-0.0106,0.1777,0
10579323,0.9999,-0.0076,0.0086,-0.0006,-0.0099,-0.0010,0.1819,0
10579490,0.9999,-0.0076,0.0085,-0.0006,0.0122,0.0038,0.1687,0
10579656,0.9999,-0.0075,0.0085,-0.0006,0.0026,-0.0025,0.1464,0
10579823,0.9999,-0.0075,0.0085,-0.0006,0.0096,-0.0038,0.1663,0
10579990,0.9999,-0.0075,0.0086,-0.0006,0.0003,-0.0161,0.1759,0
10580156,0.9999,-0.0075,0.0086,-0.0006,-0.0028,0.0024,0.1689,0
10580323,0.9999,-0.0075,0.0085,-0.0006,0.0109,-0.0012,0.1830,0
10580490,0.9999,-0.0075,0.0085,-0.0006,0.0074,-0.0033,0.1674,0
10580656,0.9999,-0.0075,0.0086,-0.0006,0.0069,0.0004,0.1716,0
10580823,0.9999,-0.0075,0.0086,-0.0006,0.0054,0.0039,0.1719,0
10580990,0.9999,-0.0075,0.0086,-0.0006,0.0032,-0.0134,0.1558,0
10581156,0.9999,-0.0075,0.0086,-0.0006,0.0116,-0.0031,0.1863,0
10581323,0.9999,-0.0076,0.0086,-0.0006,-0.0180,-0.0130,0.1260,0
10581490,0.9999,-0.0075,0.0086,-0.0006,-0.0035,0.0255,0.2501,0
10581656,0.9999,-0.0075,0.0086,-0.0006,0.0069,-0.0111,0.1054,0
10581823,0.9999,-0.0076,0.0085,-0.0006,-0.0016,-0.0313,0.1927,0
10581990,0.9999,-0.0075,0.0085,-0.0006,0.0030,0.0074,0.2003,0
10582156,0.9999,-0.0075,0.0086,-0.0006,0.0131,0.0032,0.0838,0
10582323,0.9999,-0.0075,0.0086,-0.0006,-0.0012,-0.0062,0.2558,0
10582490,0.9999,-0.0075,0.0086,-0.0006,-0.0052,0.0063,0.1805,0
10582656,0.9999,-0.0075,0.0086,-0.0006,0.0217,-0.0023,0.1166,0
10582823,0.9999,-0.0075,0.0086,-0.0006,-0.0009,-0.0113,0.2327,0
10582990,0.9999,-0.0075,0.0086,-0.0006,0.0285,-0.0006,0.1300,0
10583156,0.9999,-0.0075,0.0086,-0.0006,-0.0083,-0.0091,0.1802,0
10583323,0.9999,-0.0075,0.0086,-0.0007,-0.0078,-0.0111,0.2439,0
10583490,0.9999,-0.0075,0.0086,-0.0006,0.0077,-0.0079,0.1237,0
10583656,0.9999,-0.0075,0.0086,-0.0006,-0.0108,-0.0046,0.1712,0
10583823,0.9999,-0.0075,0.0086,-0.0006,-0.0138,-0.0178,0.1930,0
10583990,0.9999,-0.0075,0.0086,-0.0006,0.0061,-0.0029,0.1084,0
10584156,0.9999,-0.0075,0.0086,-0.0006,-0.0030,0.0003,0.2395,0
10584323,0.9999,-0.0075,0.0086,-0.0006,0.0148,-0.0292,0.1684,0
10584490,0.9999,-0.0075,0.0086,-0.0006,0.0046,-0.0332,0.1210,0
10584656,0.9999,-0.0075,0.0086,-0.0006,-0.0213,0.0140,0.2184,0
10584823,0.9999,-0.0075,0.0086,-0.0006,-0.0038,0.0052,0.1120,0
10584990,0.9999,-0.0075,0.0086,-0.0006,-0.0152,-0.0038,0.1117,0
10585156,0.9999,-0.0075,0.0085,-0.0006,-0.0081,0.0169,0.2378,0
10585323,0.9999,-0.0075,0.0085,-0.0006,0.0358,-0.0296,0.1018,0
10585490,0.9999,-0.0075,0.0085,-0.0006,0.0072,-0.0145,0.2109,0
10585656,0.9999,-0.0075,0.0085,-0.0006,0.0234,0.0356,0.2541,0
10585823,0.9999,-0.0075,0.0085,-0.0006,0.0167,0.0080,0.0625,0
10585990,0.9999,-0.0075,0.0085,-0.0006,-0.0244,-0.0118,0.2422,0
10586156,0.9999,-0.0075,0.0086,-0.0006,-0.0119,0.0113,0.1435,0
10586323,0.9999,-0.0075,0.0085,-0.0006,0.0047,-0.0098,0.1381,0
10586490,0.9999,-0.0075,0.0085,-0.0006,0.0278,-0.0465,0.2810,0
10586656,0.9999,-0.0075,0.0086,-0.0006,0.0416,-0.0208,0.1120,0
10586823,0.9999,-0.0075,0.0086,-0.0006,-0.0229,-0.0027,0.1706,0
10586990,0.9999,-0.0075,0.0086,-0.0006,-0.0327,0.0219,0.1891,0
10587156,0.9999,-0.0075,0.0086,-0.0006,-0.0253,0.0009,0.0519,0
10587323,0.9999,-0.0075,0.0086,-0.0006,-0.0251,-0.0385,0.2040,0
10587490,0.9999,-0.0075,0.0085,-0.0006,-0.0145,-0.0265,0.1563,0
10587656,0.9999,-0.0076,0.0085,-0.0006,0.0108,-0.0370,0.1467,0
10587823,0.9999,-0.0076,0.0085,-0.0006,0.0097,0.0187,0.2518,0
10587990,0.9999,-0.0076,0.0085,-0.0006,0.0444,0.0746,0.1613,0
10588156,0.9999,-0.0076,0.0085,-0.0006,0.0158,0.0487,0.1969,0
10588323,0.9999,-0.0076,0.0085,-0.0006,-0.0215,0.0003,0.1694,0
10588490,0.9999,-0.0076,0.0085,-0.0006,-0.0457,-0.0428,0.0622,0
10588656,0.9999,-0.0076,0.0085,-0.0006,-0.0460,-0.0808,0.1636,0
10588823,0.9999,-0.0076,0.0085,-0.0006,-0.0071,-0.0780,0.1559,0
10588990,0.9999,-0.0076,0.0085,-0.0006,0.0585,0.0377,0.2132,0
10589156,0.9999,-0.0076,0.0085,-0.0006,0.0633,0.0615,0.2757,0
10589323,0.9999,-0.0076,0.0085,-0.0006,0.0264,0.0557,0.1415,0
10589490,0.9999,-0.0076,0.0085,-0.0006,-0.0319,-0.0067,0.1398,0
10589656,0.9999,-0.0076,0.0085,-0.0006,-0.0770,-0.0777,0.1473,0
10589823,0.9999,-0.0076,0.0085,-0.0006,-0.0687,-0.1189,0.0757,0
10589990,0.9999,-0.0076,0.0085,-0.0006,-0.0169,-0.0122,0.1495,0
10590156,0.9999,-0.0076,0.0085,-0.0006,0.0678,0.1010,0.2566,0
10590323,0.9999,-0.0076,0.0085,-0.0006,0.0987,0.1162,0.2037,0
10590490,0.9999,-0.0076,0.0085,-0.0006,0.0665,0.0682,0.2076,0
10590656,0.9999,-0.0076,0.0086,-0.0006,-0.0384,-0.0421,0.1806,0
10590823,0.9999,-0.0076,0.0086,-0.0006,-0.1020,-0.1089,0.0572,0
10590990,0.9999,-0.0076,0.0086,-0.0006,-0.1157,-0.1304,0.0627,0
10591156,0.9999,-0.0076,0.0085,-0.0005,-0.0168,-0.0268,0.1239,0
10591323,0.9999,-0.0076,0.0085,-0.0005,0.0543,0.1464,0.2393,0
10591490,0.9999,-0.0076,0.0084,-0.0005,0.0918,0.1051,0.2549,0
10591656,0.9999,-0.0076,0.0084,-0.0005,0.0937,0.0371,0.3043,0
10591823,0.9999,-0.0076,0.0085,-0.0006,0.0341,-0.0465,0.2175,0
10591990,0.9999,-0.0076,0.0085,-0.0006,-0.0653,-0.1591,-0.0166,0
10592156,0.9999,-0.0076,0.0085,-0.0006,-0.1311,-0.0830,0.2078,0
10592323,0.9999,-0.0076,0.0085,-0.0006,-0.0354,0.0775,0.0371,0
10592490,0.9999,-0.0076,0.0085,-0.0006,0.0151,0.0808,0.1256,0
10592656,0.9999,-0.0076,0.0085,-0.0006,0.0891,0.0851,0.4514,0
10592823,0.9999,-0.0076,0.0085,-0.0006,0.1275,0.0103,0.0751,0
10592990,0.9999,-0.0076,0.0085,-0.0006,0.0193,-0.1043,0.2769,0
10593156,0.9999,-0.0076,0.0086,-0.0006,-0.0900,-0.1038,0.1474,0
10593323,0.9999,-0.0076,0.0086,-0.0005,-0.0977,0.0016,-0.0519,0
10593490,0.9999,-0.0076,0.0086,-0.0006,-0.0891,0.0539,0.2375,0
10593656,0.9999,-0.0076,0.0085,-0.0006,0.0219,0.0612,0.1423,0
10593823,0.9999,-0.0076,0.0085,-0.0006,0.0874,0.0451,0.1582,0
10593990,0.9999,-0.0076,0.0085,-0.0006,0.0782,-0.0200,0.3929,0
10594156,0.9999,-0.0076,0.0085,-0.0006,0.0485,-0.0717,0.0458,0
10594323,0.9999,-0.0076,0.0086,-0.0006,-0.0555,-0.0482,0.1443,0
10594490,0.9999,-0.0076,0.0086,-0.0006,-0.0937,0.0528,0.1908,0
10594657,0.9999,-0.0076,0.0086,-0.0006,-0.0420,0.0736,0.0014,0
10594823,0.9999,-0.0076,0.0085,-0.0006,0.0236,0.0129,0.3003,0
10594990,0.9999,-0.0076,0.0085,-0.0006,0.0854,0.0159,0.2232,0
10595157,0.9999,-0.0076,0.0085,-0.0006,0.0696,-0.0441,0.1591,0
10595323,0.9999,-0.0076,0.0086,-0.0005,-0.0148,-0.0572,0.2524,0
10595490,0.9999,-0.0076,0.0086,-0.0005,-0.0466,0.0239,0.0506,0
10595657,0.9999,-0.0076,0.0086,-0.0005,-0.0754,0.0273,0.1107,0
10595823,0.9999,-0.0076,0.0086,-0.0005,-0.0492,0.0106,0.1755,0
10595990,0.9999,-0.0076,0.0085,-0.0005,0.0535,-0.0059,0.1322,0
10596157,0.9999,-0.0076,0.0085,-0.0005,0.0694,-0.0206,0.3085,0
10596323,0.9999,-0.0076,0.0086,-0.0006,0.0529,-0.0192,0.2047,0
10596490,0.9999,-0.0076,0.0086,-0.0005,0.0014,0.0040,0.1429,0
10596657,0.9999,-0.0076,0.0086,-0.0005,-0.0763,0.0180,0.1498,0
10596823,0.9999,-0.0076,0.0086,-0.0005,-0.0785,0.0211,0.0846,0
10596990,0.9999,-0.0076,0.0086,-0.0005,-0.0184,-0.0090,0.1547,0
10597157,0.9999,-0.0076,0.0085,-0.0005,0.0385,-0.0502,0.2295,0
10597323,0.9999,-0.0076,0.0085,-0.0005,0.0784,-0.0158,0.1968,0
10597490,0.9999,-0.0076,0.0086,-0.0005,0.0459,-0.0057,0.2402,0
10597657,0.9999,-0.0076,0.0086,-0.0005,-0.0123,0.0137,0.1450,0
10597823,0.9999,-0.0076,0.0086,-0.0005,-0.0460,0.0451,0.0899,0
10597990,0.9999,-0.0076,0.0086,-0.0005,-0.0791,-0.0037,0.1516,0
10598157,0.9999,-0.0076,0.0086,-0.0005,-0.0207,-0.0430,0.1309,0
10598323,0.9999,-0.0076,0.0086,-0.0005,0.0408,-0.0446,0.2189,0
10598490,0.9999,-0.0076,0.0086,-0.0005,0.0613,-0.0002,0.2217,0
10598657,0.9999,-0.0076,0.0086,-0.0005,0.0350,0.0239,0.1626,0
10598823,0.9999,-0.0076,0.0086,-0.0005,-0.0237,0.0497,0.1704,0
10598990,0.9999,-0.0076,0.0086,-0.0005,-0.0531,0.0354,0.1123,0
10599157,0.9999,-0.0076,0.0086,-0.0005,-0.0545,-0.0280,0.1028,0
10599323,0.9999,-0.0076,0.0086,-0.0005,-0.0090,-0.0515,0.1939,0
10599490,0.9999,-0.0076,0.0086,-0.0005,0.0371,-0.0153,0.1790,0
10599657,0.9999,-0.0076,0.0086,-0.0005,0.0480,0.0199,0.1996,0
10599823,0.9999,-0.0076,0.0086,-0.0005,0.0255,0.0254,0.2090,0
10599990,0.9999,-0.0076,0.0086,-0.0005,0.0123,0.0361,0.1336,0
10600157,0.9999,-0.0076,0.0086,-0.0005,-0.0440,0.0040,0.1504,0
10600323,0.9999,-0.0076,0.0086,-0.0005,-0.0476,-0.0498,0.1394,0
10600490,0.9999,-0.0076,0.0086,-0.0005,-0.0125,-0.0464,0.1272,0
10600657,0.9999,-0.0076,0.0086,-0.0005,0.0227,-0.0073,0.2281,0
10600823,0.9999,-0.0076,0.0086,-0.0005,0.0521,0.0416,0.2024,0
10600990,0.9999,-0.0075,0.0086,-0.0005,0.0335,0.0526,0.1725,0
10601157,0.9999,-0.0076,0.0086,-0.0005,-0.0098,0.0284,0.1858,0
10601323,0.9999,-0.0076,0.0086,-0.0005,-0.0319,-0.0468,0.1307,0
10601490,0.9999,-0.0076,0.0086,-0.0005,-0.0421,-0.0514,0.1645,0
10601657,0.9999,-0.0076,0.0086,-0.0005,-0.0130,-0.0109,0.1636,0
10601823,0.9999,-0.0076,0.0086,-0.0005,0.0337,0.0225,0.1825,0
10601990,0.9999,-0.0076,0.0086,-0.0005,0.0411,0.0395,0.1939,0
10602157,0.9999,-0.0076,0.0086,-0.0005,0.0288,0.0304,0.2015,0
10602323,0.9999,-0.0076,0.0086,-0.0005,-0.0005,0.0025,0.1587,0
10602490,0.9999,-0.0075,0.0086,-0.0005,-0.0406,-0.0540,0.1509,0
10602657,0.9999,-0.0075,0.0086,-0.0005,-0.0200,-0.0470,0.1333,0
10602823,0.9999,-0.0075,0.0086,-0.0005,0.0013,-0.0048,0.1679,0
10602990,0.9999,-0.0075,0.0086,-0.0004,0.0275,0.0393,0.1966,0
10603157,0.9999,-0.0075,0.0086,-0.0004,0.0276,0.0490,0.1863,0
10603323,0.9999,-0.0075,0.0086,-0.0004,0.0201,0.0073,0.1900,0
10603490,0.9999,-0.0076,0.0086,-0.0004,-0.0068,-0.0345,0.1579,0
10603657,0.9999,-0.0075,0.0086,-0.0004,-0.0198,-0.0650,0.1468,0
10603823,0.9999,-0.0075,0.0086,-0.0004,-0.0144,-0.0214,0.1754,0
10603990,0.9999,-0.0075,0.0086,-0.0004,-0.0030,0.0228,0.1733,0
10604157,0.9999,-0.0075,0.0086,-0.0004,0.0158,0.0210,0.1876,0
10604323,0.9999,-0.0075,0.0086,-0.0004,0.0294,0.0256,0.1971,0
10604490,0.9999,-0.0075,0.0086,-0.0004,0.0154,-0.0016,0.1877,0
10604657,0.9999,-0.0075,0.0086,-0.0004,-0.0183,-0.0213,0.1616,0
10604823,0.9999,-0.0075,0.0086,-0.0004,-0.0188,-0.0302,0.1581,0
10604990,0.9999,-0.0075,0.0086,-0.0004,-0.0119,-0.0253,0.1272,0
10605157,0.9999,-0.0075,0.0086,-0.0004,-0.0022,0.0014,0.1701,0
10605323,0.9999,-0.0075,0.0086,-0.0004,0.0181,0.0459,0.1781,0
10605490,0.9999,-0.0076,0.0086,-0.0004,0.0227,0.0141,0.1976,0
10605657,0.9999,-0.0076,0.0086,-0.0004,0.0175,-0.0236,0.1722,0
10605823,0.9999,-0.0076,0.0086,-0.0004,-0.0096,-0.0369,0.1771,0
10605990,0.9999,-0.0076,0.0086,-0.0004,-0.0342,-0.0189,0.1276,0
10606157,0.9999,-0.0075,0.0086,-0.0004,-0.0173,0.0056,0.1371,0
10606323,0.9999,-0.0075,0.0086,-0.0004,-0.0061,0.0200,0.1642,0
10606490,0.9999,-0.0075,0.0086,-0.0004,0.0101,0.0365,0.2006,0
10606657,0.9999,-0.0075,0.0086,-0.0004,0.0342,-0.0153,0.1819,0
10606823,0.9999,-0.0075,0.0086,-0.0004,0.0175,-0.0273,0.1922,0
10606990,0.9999,-0.0075,0.0086,-0.0004,-0.0096,-0.0260,0.1477,0
10607157,0.9999,-0.0075,0.0086,-0.0004,-0.0196,0.0103,0.1537,0
10607323,0.9999,-0.0075,0.0086,-0.0004,-0.0117,0.0215,0.1623,0
10607490,0.9999,-0.0075,0.0086,-0.0004,0.0115,0.0239,0.1712,0
10607657,0.9999,-0.0075,0.0086,-0.0004,0.0136,-0.0051,0.1926,0
10607823,0.9999,-0.0075,0.0086,-0.0004,0.0296,-0.0231,0.2051,0
10607990,0.9999,-0.0075,0.0086,-0.0004,0.0195,-0.0068,0.1951,0
10608157,0.9999,-0.0075,0.0086,-0.0004,-0.0268,-0.0152,0.1504,0
10608323,0.9999,-0.0075,0.0086,-0.0004,-0.0376,0.0181,0.1552,0
10608490,0.9999,-0.0075,0.0086,-0.0004,-0.0187,0.0208,0.1397,0
10608657,0.9999,-0.0075,0.0086,-0.0004,-0.0035,0.0134,0.1827,0
10608823,0.9999,-0.0075,0.0086,-0.0004,0.0238,-0.0098,0.1879,0
10608990,0.9999,-0.0075,0.0086,-0.0004,0.0259,-0.0144,0.2019,0
10609157,0.9999,-0.0075,0.0086,-0.0004,0.0169,-0.0118,0.1653,0
10609323,0.9999,-0.0075,0.0086,-0.0003,-0.0251,0.0020,0.1694,0
10609490,0.9999,-0.0075,0.0086,-0.0004,-0.0261,0.0163,0.1436,0
10609657,0.9999,-0.0075,0.0086,-0.0004,0.0047,0.0010,0.1480,0
10609823,0.9999,-0.0075,0.0086,-0.0004,0.0109,-0.0158,0.1915,0
10609990,0.9999,-0.0075,0.0085,-0.0004,0.0211,-0.0178,0.1977,0
10610157,0.9999,-0.0075,0.0086,-0.0004,0.0231,-0.0004,0.1835,0
10610323,0.9999,-0.0075,0.0086,-0.0004,-0.0103,-0.0034,0.1894,0
10610490,0.9999,-0.0075,0.0086,-0.0004,-0.0114,0.0020,0.1612,0
10610657,0.9999,-0.0075,0.0086,-0.0004,-0.0331,0.0061,0.1435,0
10610823,0.9999,-0.0075,0.0086,-0.0004,-0.0058,-0.0172,0.1669,0
10610990,0.9999,-0.0075,0.0086,-0.0004,0.0139,-0.0148,0.1828,0
10611157,0.9999,-0.0075,0.0086,-0.0004,0.0086,-0.0181,0.1778,0
10611324,0.9999,-0.0075,0.0086,-0.0004,0.0093,-0.0064,0.1929,0
10611490,0.9999,-0.0075,0.0086,-0.0004,0.0005,0.0245,0.1942,0
10611657,0.9999,-0.0075,0.0086,-0.0004,-0.0119,-0.0029,0.1741,0
10611824,0.9999,-0.0075,0.0086,-0.0004,-0.0158,-0.0120,0.1661,0
10611990,0.9999,-0.0075,0.0086,-0.0004,-0.0155,-0.0243,0.1504,0
10612157,0.9999,-0.0075,0.0086,-0.0004,0.0029,-0.0220,0.1783,0
10612324,0.9999,-0.0075,0.0086,-0.0003,0.0135,-0.0015,0.1906,0
10612490,0.9999,-0.0074,0.0086,-0.0003,0.0169,0.0245,0.1673,0
10612657,0.9999,-0.0074,0.0086,-0.0003,0.0036,0.0165,0.1660,0
10612824,0.9999,-0.0074,0.0086,-0.0003,-0.0110,-0.0021,0.1765,0
10612990,0.9999,-0.0074,0.0086,-0.0003,-0.0030,-0.0101,0.1801,0
10613157,0.9999,-0.0075,0.0086,-0.0003,-0.0081,-0.0216,0.1810,0
10613324,0.9999,-0.0075,0.0086,-0.0003,0.0138,-0.0190,0.1805,0
10613490,0.9999,-0.0074,0.0086,-0.0003,0.0032,0.0044,0.2033,0
10613657,0.9999,-0.0074,0.0086,-0.0003,0.0059,0.0161,0.1820,0
10613824,0.9999,-0.0074,0.0086,-0.0004,-0.0145,0.0075,0.1673,0
10613990,0.9999,-0.0074,0.0086,-0.0003,-0.0155,-0.0096,0.1739,0
10614157,0.9999,-0.0074,0.0086,-0.0003,-0.0094,-0.0207,0.1799,0
10614324,0.9999,-0.0074,0.0086,-0.0003,-0.0252,-0.0266,0.1718,0
10614490,0.9999,-0.0074,0.0086,-0.0003,-0.0087,0.0026,0.1741,0
10614657,0.9999,-0.0074,0.0086,-0.0003,0.0053,0.0286,0.1667,0
10614824,0.9999,-0.0074,0.0086,-0.0003,0.0091,0.0077,0.1776,0
10614990,0.9999,-0.0074,0.0086,-0.0003,0.0004,0.0145,0.1718,0
10615157,0.9999,-0.0074,0.0086,-0.0003,-0.0096,-0.0142,0.1561,0
10615324,0.9999,-0.0074,0.0085,-0.0003,-0.0152,-0.0222,0.1756,0
10615490,0.9999,-0.0074,0.0085,-0.0003,-0.0019,-0.0098,0.1404,0
10615657,0.9999,-0.0074,0.0085,-0.0003,0.0137,0.0024,0.1836,0
10615824,0.9999,-0.0074,0.0085,-0.0003,0.0018,0.0217,0.1809,0
10615990,0.9999,-0.0074,0.0085,-0.0003,-0.0035,0.0143,0.1925,0
10616157,0.9999,-0.0074,0.0085,-0.0003,-0.0145,-0.0150,0.1674,0
10616324,0.9999,-0.0074,0.0085,-0.0003,-0.0092,-0.0155,0.1557,0
10616490,0.9999,-0.0074,0.0085,-0.0003,-0.0101,-0.0136,0.1639,0
10616657,0.9999,-0.0074,0.0085,-0.0003,-0.0090,-0.0123,0.1927,0
10616824,0.9999,-0.0074,0.0085,-0.0003,0.0043,0.0083,0.1651,0
10616990,0.9999,-0.0074,0.0085,-0.0003,0.0015,0.0044,0.1821,0
10617157,0.9999,-0.0074,0.0085,-0.0003,0.0108,-0.0094,0.1794,0
10617324,0.9999,-0.0074,0.0085,-0.0003,0.0001,-0.0110,0.1747,0
10617490,0.9999,-0.0074,0.0085,-0.0003,-0.0080,-0.0150,0.1611,0
10617657,0.9999,-0.0074,0.0085,-0.0003,-0.0017,-0.0135,0.1763,0
10617824,0.9999,-0.0074,0.0085,-0.0003,-0.0098,0.0003,0.1714,0
10617990,0.9999,-0.0074,0.0085,-0.0003,0.0001,0.0116,0.1861,0
10618157,0.9999,-0.0074,0.0085,-0.0003,0.0053,0.0099,0.1798,0
10618324,0.9999,-0.0074,0.0085,-0.0003,-0.0071,-0.0124,0.1786,0
10618490,0.9999,-0.0074,0.0085,-0.0003,-0.0116,-0.0230,0.1731,0
10618657,0.9999,-0.0074,0.0085,-0.0003,-0.0087,-0.0090,0.1565,0
10618824,0.9999,-0.0074,0.0085,-0.0003,-0.0175,-0.0070,0.1635,0
10618990,0.9999,-0.0074,0.0085,-0.0003,-0.0036,0.0080,0.1729,0
10619157,0.9999,-0.0074,0.0085,-0.0003,0.0108,0.0046,0.1738,0
10619324,0.9999,-0.0074,0.0085,-0.0003,-0.0088,-0.0111,0.1739,0
10619490,0.9999,-0.0074,0.0085,-0.0003,0.0037,-0.0094,0.1867,0
10619657,0.9999,-0.0074,0.0085,-0.0003,-0.0132,-0.0086,0.1573,0
10619824,0.9999,-0.0074,0.0085,-0.0003,-0.0048,-0.0036,0.1576,0
10619990,0.9999,-0.0074,0.0085,-0.0003,-0.0037,0.0012,0.1591,0
10620157,0.9999,-0.0074,0.0085,-0.0004,-0.0011,-0.0041,0.1865,0
10620324,0.9999,-0.0074,0.0085,-0.0004,0.0131,-0.0075,0.1831,0
10620490,0.9999,-0.0074,0.0085,-0.0004,-0.0042,-0.0031,0.1793,0
10620657,0.9999,-0.0074,0.0085,-0.0004,-0.0021,-0.0076,0.1852,0
10620824,0.9999,-0.0074,0.0085,-0.0003,-0.0179,-0.0118,0.1597,0
10620990,0.9999,-0.0074,0.0085,-0.0003,-0.0178,-0.0041,0.1610,0
10621157,0.9999,-0.0074,0.0085,-0.0004,-0.0172,-0.0040,0.1378,0
10621324,0.9999,-0.0074,0.0085,-0.0004,-0.0001,-0.0096,0.1514,0
10621490,0.9999,-0.0074,0.0085,-0.0004,-0.0016,-0.0057,0.1600,0
10621657,0.9999,-0.0074,0.0085,-0.0004,-0.0115,-0.0195,0.1773,0
10621824,0.9999,-0.0074,0.0085,-0.0004,-0.0148,-0.0124,0.1839,0
10621990,0.9999,-0.0074,0.0085,-0.0004,-0.0186,-0.0072,0.1804,0
10622157,0.9999,-0.0074,0.0085,-0.0004,0.0087,-0.0086,0.1670,0
10622324,0.9999,-0.0074,0.0085,-0.0004,-0.0095,-0.0196,0.1698,0
10622490,0.9999,-0.0074,0.0085,-0.0004,-0.0148,-0.0114,0.1666,0
10622657,0.9999,-0.0074,0.0085,-0.0004,0.0090,-0.0221,0.1442,0
10622824,0.9999,-0.0074,0.0085,-0.0004,0.0037,-0.0104,0.1658,0
10622990,0.9999,-0.0073,0.0085,-0.0004,-0.0001,0.0056,0.1773,0
10623157,0.9999,-0.0073,0.0085,-0.0004,0.0001,-0.0133,0.1592,0
10623324,0.9999,-0.0073,0.0085,-0.0004,-0.0055,-0.0054,0.1928,0
10623490,0.9999,-0.0073,0.0085,-0.0004,0.0031,-0.0090,0.1803,0
10623657,0.9999,-0.0073,0.0085,-0.0004,0.0083,-0.0298,0.1957,0
10623824,0.9999,-0.0073,0.0085,-0.0004,0.0061,-0.0201,0.1930,0
10623990,0.9999,-0.0073,0.0085,-0.0004,-0.0031,-0.0122,0.1872,0
10624157,0.9999,-0.0073,0.0085,-0.0004,0.0051,-0.0097,0.1869,0
10624324,0.9999,-0.0073,0.0085,-0.0004,-0.0059,-0.0095,0.1614,0
10624490,0.9999,-0.0073,0.0085,-0.0004,-0.0108,-0.0085,0.1669,0
10624657,0.9999,-0.0073,0.0085,-0.0004,-0.0107,-0.0218,0.1594,0
10624824,0.9999,-0.0073,0.0085,-0.0004,0.0051,-0.0128,0.2002,0
10624990,0.9999,-0.0073,0.0085,-0.0004,-0.0100,-0.0115,0.1530,0
10625157,0.9999,-0.0073,0.0085,-0.0004,-0.0016,0.0027,0.1771,0
10625324,0.9999,-0.0073,0.0085,-0.0004,-0.0081,-0.0008,0.1795,0
10625490,0.9999,-0.0073,0.0085,-0.0004,-0.0229,-0.0177,0.1738,0
10625657,0.9999,-0.0073,0.0085,-0.0004,-0.0066,-0.0243,0.1738,0
10625824,0.9999,-0.0073,0.0085,-0.0003,0.0031,-0.0172,0.1621,0
10625990,0.9999,-0.0073,0.0085,-0.0004,-0.0073,-0.0172,0.1817,0
10626157,0.9999,-0.0073,0.0085,-0.0004,-0.0101,-0.0106,0.1652,0
10626324,0.9999,-0.0073,0.0085,-0.0004,0.0046,0.0018,0.1692,0
10626490,0.9999,-0.0073,0.0085,-0.0004,-0.0008,-0.0052,0.1711,0
10626657,0.9999,-0.0072,0.0085,-0.0004,-0.0070,-0.0068,0.1786,0
10626824,0.9999,-0.0072,0.0085,-0.0004,-0.0071,-0.0146,0.1818,0
10626990,0.9999,-0.0072,0.0085,-0.0004,-0.0075,-0.0072,0.1567,0
10627157,0.9999,-0.0072,0.0085,-0.0004,-0.0043,-0.0083,0.1844,0
10627324,0.9999,-0.0072,0.0085,-0.0004,0.0080,-0.0019,0.1821,0
10627490,0.9999,-0.0072,0.0085,-0.0003,-0.0050,-0.0030,0.1432,0
10627657,0.9999,-0.0074,0.0086,-0.0003,-0.0060,-0.0070,0.1677,0
10627824,0.9999,-0.0074,0.0086,-0.0003,-0.0006,-0.0079,0.1623,0
10627991,0.9999,-0.0074,0.0086,-0.0003,-0.0021,-0.0151,0.1601,0
10628157,0.9999,-0.0074,0.0086,-0.0003,0.0134,-0.0072,0.1667,0
10628324,0.9999,-0.0074,0.0086,-0.0003,0.0077,-0.0092,0.1676,0
10628491,0.9999,-0.0074,0.0086,-0.0003,-0.0082,-0.0134,0.1985,0
10628657,0.9999,-0.0074,0.0086,-0.0003,-0.0002,-0.0180,0.1809,0
10628824,0.9999,-0.0074,0.0086,-0.0003,-0.0078,-0.0079,0.1740,0
10628991,0.9999,-0.0074,0.0086,-0.0003,-0.0034,-0.0035,0.1704,0
10629157,0.9999,-0.0074,0.0086,-0.0003,-0.0001,-0.0051,0.1647,0
10629324,0.9999,-0.0074,0.0086,-0.0003,-0.0005,-0.0043,0.1634,0
10629491,0.9999,-0.0074,0.0086,-0.0003,0.0091,-0.0127,0.1936,0
10629657,0.9999,-0.0074,0.0086,-0.0003,0.0063,-0.0059,0.1572,0
10629824,0.9999,-0.0074,0.0086,-0.0003,-0.0056,-0.0149,0.1752,0
10629991,0.9999,-0.0074,0.0086,-0.0003,-0.0110,-0.0098,0.1482,0
10630157,0.9999,-0.0074,0.0086,-0.0003,-0.0118,-0.0166,0.1706,0
10630324,0.9999,-0.0074,0.0086,-0.0003,-0.0060,-0.0095,0.1636,0
10630491,0.9999,-0.0074,0.0086,-0.0003,-0.0088,-0.0065,0.1629,0
10630657,0.9999,-0.0074,0.0086,-0.0003,-0.0109,-0.0005,0.1627,0
10630824,0.9999,-0.0074,0.0086,-0.0002,-0.0006,-0.0041,0.1799,0
10630991,0.9999,-0.0074,0.0086,-0.0002,-0.0024,-0.0044,0.1498,0
10631157,0.9999,-0.0074,0.0086,-0.0002,-0.0105,-0.0172,0.1798,0
10631324,0.9999,-0.0074,0.0086,-0.0003,0.0078,-0.0091,0.1619,0
10631491,0.9999,-0.0074,0.0086,-0.0002,-0.0050,-0.0073,0.1746,0
10631657,0.9999,-0.0074,0.0086,-0.0002,0.0052,0.0088,0.1748,0
10631824,0.9999,-0.0074,0.0086,-0.0003,-0.0050,-0.0077,0.1526,0
10631991,0.9999,-0.0074,0.0086,-0.0002,-0.0109,0.0034,0.1830,0
10632157,0.9999,-0.0074,0.0086,-0.0003,0.0169,-0.0201,0.1548,0
10632324,0.9999,-0.0074,0.0086,-0.0003,0.0018,-0.0021,0.1596,0
10632491,0.9999,-0.0074,0.0086,-0.0002,-0.0005,-0.0064,0.1725,0
10632657,0.9999,-0.0074,0.0086,-0.0003,-0.0026,-0.0048,0.1494,0
10632824,0.9999,-0.0074,0.0086,-0.0003,0.0009,0.0141,0.1719,0
10632991,0.9999,-0.0074,0.0085,-0.0003,0.0023,0.0018,0.1862,0
10633157,0.9999,-0.0074,0.0085,-0.0003,-0.0043,-0.0016,0.1798,0
10633324,0.9999,-0.0074,0.0086,-0.0003,0.0038,-0.0177,0.1820,0
10633491,0.9999,-0.0074,0.0086,-0.0003,-0.0162,-0.0080,0.1744,0
10633657,0.9999,-0.0074,0.0086,-0.0003,-0.0018,-0.0051,0.1665,0
10633824,0.9999,-0.0074,0.0086,-0.0003,-0.0017,-0.0029,0.1810,0
10633991,0.9999,-0.0074,0.0086,-0.0003,0.0017,-0.0027,0.1686,0
10634157,0.9999,-0.0074,0.0086,-0.0002,-0.0060,-0.0112,0.1796,0
10634324,0.9999,-0.0074,0.0086,-0.0003,0.0145,-0.0095,0.1603,0
10634491,0.9999,-0.0074,0.0086,-0.0003,-0.0050,-0.0164,0.1591,0
10634657,0.9999,-0.0074,0.0086,-0.0003,0.0006,-0.0126,0.1762,0
10634824,0.9999,-0.0074,0.0086,-0.0003,-0.0144,-0.0167,0.1709,0
10634991,0.9999,-0.0074,0.0086,-0.0003,-0.0085,-0.0195,0.1799,0
10635157,0.9999,-0.0074,0.0086,-0.0003,0.0030,-0.0101,0.1688,0
10635324,0.9999,-0.0074,0.0085,-0.0003,-0.0084,-0.0085,0.1669,0
10635491,0.9999,-0.0074,0.0085,-0.0003,-0.0007,0.0020,0.1642,0
10635657,0.9999,-0.0074,0.0085,-0.0003,0.0016,-0.0112,0.1528,0
10635824,0.9999,-0.0074,0.0085,-0.0003,-0.0010,0.0005,0.1913,0
10635991,0.9999,-0.0074,0.0085,-0.0003,-0.0125,0.0016,0.1964,0
10636157,0.9999,-0.0074,0.0085,-0.0003,0.0066,-0.0043,0.1667,0
10636324,0.9999,-0.0074,0.0085,-0.0003,0.0062,-0.0080,0.1699,0
10636491,0.9999,-0.0073,0.0085,-0.0003,-0.0066,-0.0208,0.1617,0
10636657,0.9999,-0.0073,0.0085,-0.0003,0.0001,-0.0008,0.1683,0
10636824,0.9999,-0.0073,0.0085,-0.0003,-0.0020,0.0006,0.1754,0
10636991,0.9999,-0.0073,0.0085,-0.0003,-0.0059,-0.0151,0.1768,0
10637157,0.9999,-0.0073,0.0085,-0.0003,-0.0140,-0.0055,0.1903,0
10637324,0.9999,-0.0073,0.0085,-0.0003,-0.0076,-0.0209,0.1657,0
10637491,0.9999,-0.0073,0.0085,-0.0003,0.0058,-0.0156,0.1830,0
10637657,0.9999,-0.0073,0.0085,-0.0003,-0.0080,-0.0034,0.1669,0
10637824,0.9999,-0.0073,0.0085,-0.0003,0.0148,0.0014,0.1690,0
10637991,0.9999,-0.0073,0.0085,-0.0003,-0.0034,-0.0059,0.1861,0
10638157,0.9999,-0.0073,0.0085,-0.0003,-0.0017,0.0026,0.1862,0
10638324,0.9999,-0.0073,0.0085,-0.0003,-0.0105,-0.0224,0.1631,0
10638491,0.9999,-0.0073,0.0085,-0.0003,0.0004,-0.0053,0.1837,0
10638657,0.9999,-0.0073,0.0085,-0.0003,-0.0082,-0.0042,0.1687,0
10638824,0.9999,-0.0073,0.0085,-0.0003,-0.0058,-0.0057,0.1810,0
10638991,0.9999,-0.0073,0.0085,-0.0003,-0.0005,-0.0005,0.1773,0
10639157,0.9999,-0.0073,0.0085,-0.0003,0.0067,-0.0052,0.1740,0
10639324,0.9999,-0.0073,0.0085,-0.0003,0.0065,-0.0061,0.1816,0
10639491,0.9999,-0.0073,0.0085,-0.0003,0.0026,-0.0060,0.1853,0
10639657,0.9999,-0.0073,0.0085,-0.0003,0.0041,-0.0113,0.1674,0
10639824,0.9999,-0.0073,0.0085,-0.0003,0.0047,0.0073,0.1856,0
10639991,0.9999,-0.0073,0.0086,-0.0003,-0.0035,-0.0039,0.1517,0
10640157,0.9999,-0.0073,0.0085,-0.0003,0.0165,0.0081,0.1933,0
10640324,0.9999,-0.0073,0.0085,-0.0003,-0.0068,-0.0079,0.1897,0
10640491,0.9999,-0.0073,0.0085,-0.0003,0.0040,0.0017,0.1862,0
10640657,0.9999,-0.0073,0.0085,-0.0003,0.0089,-0.0163,0.1719,0
10640824,0.9999,-0.0073,0.0085,-0.0003,-0.0013,-0.0070,0.1502,0
10640991,0.9999,-0.0073,0.0085,-0.0003,0.0041,-0.0131,0.1611,0
10641157,0.9999,-0.0073,0.0085,-0.0003,0.0037,-0.0139,0.2008,0
10641324,0.9999,-0.0072,0.0085,-0.0003,0.0031,0.0070,0.1697,0
10641491,0.9999,-0.0073,0.0085,-0.0003,-0.0130,-0.0077,0.1643,0
10641657,0.9999,-0.0073,0.0085,-0.0003,-0.0117,-0.0057,0.1814,0
10641824,0.9999,-0.0072,0.0085,-0.0003,-0.0055,0.0018,0.2722,0
10641991,0.9999,-0.0073,0.0085,-0.0003,0.0212,-0.0099,0.1012,0
10642157,0.9999,-0.0073,0.0085,-0.0003,0.0183,-0.0164,0.1127,0
10642324,0.9999,-0.0072,0.0085,-0.0003,-0.0191,0.0007,0.2737,0
10642491,0.9999,-0.0072,0.0085,-0.0003,-0.0209,-0.0064,0.0763,0
10642657,0.9999,-0.0072,0.0085,-0.0003,-0.0237,-0.0121,0.2029,0
10642824,0.9999,-0.0072,0.0085,-0.0003,-0.0152,-0.0232,0.2055,0
10642991,0.9999,-0.0072,0.0085,-0.0003,0.0251,-0.0249,0.1016,0
10643157,0.9999,-0.0072,0.0085,-0.0003,0.0130,-0.0194,0.2166,0
10643324,0.9999,-0.0072,0.0085,-0.0003,0.0206,0.0080,0.2169,0
10643491,0.9999,-0.0072,0.0085,-0.0003,0.0144,0.0178,0.1659,0
10643657,0.9999,-0.0072,0.0085,-0.0003,-0.0111,-0.0137,0.2327,0
10643824,0.9999,-0.0072,0.0085,-0.0003,-0.0315,-0.0201,0.1095,0
10643991,0.9999,-0.0072,0.0085,-0.0003,-0.0190,-0.0091,0.1603,0
10644157,0.9999,-0.0072,0.0085,-0.0004,-0.0239,-0.0311,0.1796,0
10644324,0.9999,-0.0072,0.0085,-0.0004,0.0014,-0.0029,0.1293,0
10644491,0.9999,-0.0072,0.0085,-0.0004,-0.0002,0.0179,0.2363,0
10644658,0.9999,-0.0072,0.0085,-0.0004,0.0208,0.0303,0.1861,0
10644824,0.9999,-0.0072,0.0085,-0.0004,0.0203,-0.0094,0.0809,0
10644991,0.9999,-0.0072,0.0085,-0.0004,-0.0362,-0.0405,0.2036,0
10645158,0.9999,-0.0072,0.0085,-0.0004,-0.0212,0.0312,0.2834,0
10645324,0.9999,-0.0072,0.0085,-0.0004,0.0419,0.0020,0.0055,0
10645491,0.9999,-0.0072,0.0085,-0.0004,0.0056,-0.0301,0.2943,0
10645658,0.9999,-0.0072,0.0085,-0.0004,0.0043,0.0224,0.1821,0
10645824,0.9999,-0.0072,0.0085,-0.0004,-0.0085,-0.0110,0.0490,0
10645991,0.9999,-0.0072,0.0085,-0.0004,-0.0375,-0.0497,0.2593,0
10646158,0.9999,-0.0072,0.0085,-0.0004,-0.0369,-0.0038,0.0403,0
10646324,0.9999,-0.0072,0.0085,-0.0004,-0.0072,0.0070,0.2309,0
10646491,0.9999,-0.0072,0.0085,-0.0004,-0.0073,-0.0635,0.2775,0
10646658,0.9999,-0.0072,0.0084,-0.0004,0.0664,0.0184,0.1188,0
10646824,0.9999,-0.0072,0.0084,-0.0004,0.0161,0.0335,0.2767,0
10646991,0.9999,-0.0072,0.0085,-0.0004,-0.0208,-0.0458,0.1732,0
10647158,0.9999,-0.0072,0.0085,-0.0004,-0.0117,-0.0019,0.0430,0
10647324,0.9999,-0.0072,0.0085,-0.0004,-0.0288,0.0223,0.2634,0
10647491,0.9999,-0.0072,0.0085,-0.0004,-0.0146,-0.0410,0.1517,0
10647658,0.9999,-0.0075,0.0086,-0.0004,0.0344,-0.0243,0.1107,0
10647824,0.9999,-0.0075,0.0086,-0.0004,0.0195,0.0182,0.2802,0
10647991,0.9999,-0.0075,0.0087,-0.0004,0.0162,-0.0088,0.1105,0
10648158,0.9999,-0.0075,0.0086,-0.0004,-0.0257,-0.0124,0.1527,0
10648324,0.9999,-0.0075,0.0087,-0.0004,-0.0332,0.0035,0.2123,0
10648491,0.9999,-0.0075,0.0086,-0.0004,-0.0117,0.0004,0.0826,0
10648658,0.9999,-0.0075,0.0086,-0.0004,-0.0103,-0.0378,0.2009,0
10648824,0.9999,-0.0075,0.0086,-0.0004,0.0247,0.0121,0.2121,0
10648991,0.9999,-0.0075,0.0086,-0.0004,0.0382,0.0095,0.1594,0
10649158,0.9999,-0.0075,0.0087,-0.0004,0.0014,-0.0074,0.2557,0
10649324,0.9999,-0.0075,0.0087,-0.0004,0.0055,0.0071,0.1540,0
10649491,0.9999,-0.0075,0.0087,-0.0004,-0.0186,0.0114,0.1497,0
10649658,0.9999,-0.0075,0.0087,-0.0004,-0.0235,-0.0251,0.1822,0
10649824,0.9999,-0.0075,0.0086,-0.0004,0.0138,-0.0109,0.1455,0
10649991,0.9999,-0.0075,0.0086,-0.0004,0.0145,0.0091,0.2032,0
10650158,0.9999,-0.0075,0.0087,-0.0004,0.0177,0.0103,0.1729,0
10650324,0.9999,-0.0075,0.0087,-0.0004,0.0139,0.0041,0.1429,0
10650491,0.9999,-0.0075,0.0087,-0.0004,-0.0110,0.0038,0.2014,0
10650658,0.9999,-0.0075,0.0087,-0.0004,-0.0141,-0.0313,0.1709,0
10650824,0.9999,-0.0075,0.0087,-0.0004,-0.0077,-0.0296,0.1416,0
10650991,0.9999,-0.0075,0.0087,-0.0004,0.0067,0.0065,0.2098,0
10651158,0.9999,-0.0075,0.0087,-0.0004,0.0151,-0.0189,0.1640,0
10651324,0.9999,-0.0075,0.0087,-0.0003,0.0116,0.0020,0.1730,0
10651491,0.9999,-0.0075,0.0087,-0.0003,0.0070,0.0292,0.1944,0
10651658,0.9999,-0.0075,0.0087,-0.0003,0.0079,-0.0160,0.1237,0
10651824,0.9999,-0.0075,0.0087,-0.0003,-0.0057,-0.0328,0.1866,0
10651991,0.9999,-0.0075,0.0087,-0.0003,-0.0036,-0.0077,0.1992,0
10652158,0.9999,-0.0075,0.0087,-0.0003,0.0101,-0.0097,0.1446,0
10652324,0.9999,-0.0074,0.0087,-0.0003,0.0225,0.0143,0.1638,0
10652491,0.9999,-0.0074,0.0087,-0.0003,0.0193,0.0017,0.1961,0
10652658,0.9999,-0.0074,0.0087,-0.0003,0.0204,-0.0074,0.1723,0
10652824,0.9999,-0.0074,0.0087,-0.0003,-0.0034,0.0023,0.1765,0
10652991,0.9999,-0.0074,0.0087,-0.0003,-0.0223,-0.0251,0.1563,0
10653158,0.9999,-0.0074,0.0087,-0.0003,0.0016,-0.0167,0.1464,0
10653324,0.9999,-0.0074,0.0087,-0.0003,0.0013,-0.0010,0.1775,0
10653491,0.9999,-0.0074,0.0087,-0.0003,0.0171,-0.0068,0.1818,0
10653658,0.9999,-0.0074,0.0087,-0.0003,0.0160,-0.0035,0.1861,0
10653824,0.9999,-0.0074,0.0087,-0.0003,0.0183,-0.0140,0.1703,0
10653991,0.9999,-0.0074,0.0087,-0.0003,-0.0080,-0.0072,0.1693,0
10654158,0.9999,-0.0074,0.0087,-0.0003,0.0002,-0.0252,0.1525,0
10654324,0.9999,-0.0074,0.0087,-0.0003,-0.0011,-0.0081,0.1643,0
10654491,0.9999,-0.0074,0.0087,-0.0003,0.0067,0.0131,0.1746,0
10654658,0.9999,-0.0074,0.0087,-0.0003,0.0104,-0.0137,0.1087,0
10654824,0.9999,-0.0074,0.0087,-0.0003,0.0146,0.0081,0.2707,0
10654991,0.9999,-0.0074,0.0087,-0.0003,0.0188,-0.0109,0.1650,0
10655158,0.9999,-0.0074,0.0087,-0.0003,-0.0039,-0.0157,0.1144,0
10655324,0.9999,-0.0074,0.0087,-0.0003,-0.0068,-0.0181,0.2248,0
10655491,0.9999,-0.0074,0.0087,-0.0003,-0.0025,-0.0080,0.1069,0
10655658,0.9999,-0.0074,0.0087,-0.0003,0.0030,-0.0087,0.1613,0
10655824,0.9999,-0.0074,0.0087,-0.0003,-0.0021,-0.0118,0.2461,0
10655991,0.9999,-0.0074,0.0087,-0.0003,0.0125,-0.0133,0.1208,0
10656158,0.9999,-0.0074,0.0087,-0.0003,0.0073,-0.0129,0.2175,0
10656324,0.9999,-0.0074,0.0087,-0.0003,-0.0038,-0.0032,0.1851,0
10656491,0.9999,-0.0074,0.0087,-0.0003,0.0088,-0.0090,0.1168,0
10656658,0.9999,-0.0074,0.0087,-0.0003,-0.0233,0.0036,0.2271,0
10656824,0.9999,-0.0074,0.0087,-0.0003,-0.0044,-0.0056,0.1354,0
10656991,0.9999,-0.0074,0.0087,-0.0003,0.0148,-0.0150,0.1438,0
10657158,0.9999,-0.0074,0.0087,-0.0003,0.0136,-0.0055,0.2245,0
10657324,0.9999,-0.0074,0.0087,-0.0003,0.0070,-0.0141,0.1523,0
10657491,0.9999,-0.0074,0.0087,-0.0003,-0.0092,-0.0126,0.1771,0
10657658,0.9999,-0.0074,0.0087,-0.0003,-0.0240,0.0067,0.1866,0
10657824,0.9999,-0.0074,0.0087,-0.0003,-0.0081,-0.0058,0.1269,0
10657991,0.9999,-0.0074,0.0087,-0.0004,-0.0043,0.0007,0.1942,0
10658158,0.9999,-0.0074,0.0087,-0.0004,0.0143,-0.0066,0.1656,0
10658324,0.9999,-0.0074,0.0087,-0.0004,0.0117,-0.0058,0.1515,0
10658491,0.9999,-0.0074,0.0087,-0.0004,0.0134,-0.0093,0.1973,0
10658658,0.9999,-0.0074,0.0087,-0.0004,-0.0028,-0.0075,0.1544,0
10658824,0.9999,-0.0074,0.0087,-0.0004,-0.0043,0.0078,0.1638,0
10658991,0.9999,-0.0074,0.0087,-0.0004,-0.0155,-0.0151,0.1814,0
10659158,0.9999,-0.0074,0.0087,-0.0004,0.0091,-0.0092,0.1548,0
10659324,0.9999,-0.0074,0.0086,-0.0004,0.0111,-0.0088,0.1919,0
10659491,0.9999,-0.0074,0.0087,-0.0004,0.0257,-0.0230,0.1972,0
10659658,0.9999,-0.0074,0.0087,-0.0004,0.0198,-0.0023,0.1505,0
10659824,0.9999,-0.0074,0.0087,-0.0004,-0.0031,-0.0067,0.2031,0
10659991,0.9999,-0.0074,0.0087,-0.0004,0.0100,-0.0025,0.1657,0
10660158,0.9999,-0.0073,0.0087,-0.0004,-0.0265,-0.0236,0.1468,0
10660324,0.9999,-0.0073,0.0087,-0.0004,-0.0004,-0.0121,0.1964,0
10660491,0.9999,-0.0073,0.0087,-0.0004,0.0053,-0.0111,0.1606,0
10660658,0.9999,-0.0073,0.0087,-0.0004,0.0040,-0.0046,0.1747,0
10660824,0.9999,-0.0073,0.0087,-0.0004,-0.0119,0.0023,0.1850,0
10660991,0.9999,-0.0073,0.0087,-0.0004,0.0141,-0.0033,0.1503,0
10661158,0.9999,-0.0073,0.0087,-0.0004,-0.0142,0.0045,0.1727,0
10661325,0.9999,-0.0073,0.0087,-0.0004,-0.0085,-0.0211,0.1567,0
10661491,0.9999,-0.0073,0.0087,-0.0004,0.0042,-0.0035,0.1519,0
10661658,0.9999,-0.0073,0.0087,-0.0004,0.0207,0.0075,0.2047,0
10661825,0.9999,-0.0073,0.0087,-0.0004,0.0268,0.0065,0.1485,0
10661991,0.9999,-0.0073,0.0087,-0.0004,0.0184,0.0190,0.1765,0
10662158,0.9999,-0.0073,0.0087,-0.0004,-0.0122,0.0011,0.1915,0
10662325,0.9999,-0.0073,0.0087,-0.0004,-0.0167,-0.0174,0.1680,0
10662491,0.9999,-0.0073,0.0086,-0.0004,-0.0039,-0.0048,0.1755,0
10662658,0.9999,-0.0073,0.0086,-0.0004,-0.0035,-0.0109,0.1835,0
10662825,0.9999,-0.0073,0.0087,-0.0004,0.0126,-0.0069,0.1834,0
10662991,0.9999,-0.0073,0.0087,-0.0004,0.0015,0.0112,0.1970,0
10663158,0.9999,-0.0073,0.0087,-0.0004,0.0038,0.0065,0.1651,0
10663325,0.9999,-0.0073,0.0087,-0.0004,0.0180,-0.0003,0.1614,0
10663491,0.9999,-0.0073,0.0087,-0.0004,-0.0160,-0.0169,0.1680,0
10663658,0.9999,-0.0073,0.0087,-0.0004,0.0055,-0.0202,0.1430,0
10663825,0.9999,-0.0073,0.0087,-0.0004,-0.0076,-0.0099,0.1572,0
10663991,0.9999,-0.0073,0.0087,-0.0004,0.0034,-0.0012,0.1916,0
10664158,0.9999,-0.0073,0.0087,-0.0004,0.0098,-0.0050,0.1621,0
10664325,0.9999,-0.0073,0.0087,-0.0004,0.0008,-0.0005,0.1879,0
10664491,0.9999,-0.0073,0.0087,-0.0004,-0.0088,-0.0096,0.1679,0
10664658,0.9999,-0.0073,0.0087,-0.0004,-0.0040,-0.0151,0.1305,0
10664825,0.9999,-0.0073,0.0087,-0.0004,0.0084,-0.0199,0.1626,0
10664991,0.9999,-0.0073,0.0087,-0.0004,-0.0007,0.0097,0.1908,0
10665158,0.9999,-0.0073,0.0087,-0.0004,0.0017,0.0043,0.1659,0
10665325,0.9999,-0.0073,0.0087,-0.0004,-0.0012,0.0010,0.1914,0
10665491,0.9999,-0.0073,0.0087,-0.0004,0.0078,-0.0002,0.1788,0
10665658,0.9999,-0.0073,0.0087,-0.0004,0.0053,-0.0162,0.1585,0
10665825,0.9999,-0.0072,0.0087,-0.0004,0.0085,-0.0183,0.1493,0
10665991,0.9999,-0.0072,0.0087,-0.0004,0.0024,0.0024,0.1627,0
10666158,0.9999,-0.0072,0.0087,-0.0004,0.0073,0.0009,0.1804,0
10666325,0.9999,-0.0072,0.0087,-0.0004,0.0013,-0.0013,0.1888,0
10666491,0.9999,-0.0072,0.0087,-0.0005,0.0028,-0.0211,0.1722,0
10666658,0.9999,-0.0072,0.0087,-0.0005,-0.0043,-0.0168,0.1766,0
10666825,0.9999,-0.0072,0.0087,-0.0004,-0.0086,-0.0198,0.1652,0
10666991,0.9999,-0.0072,0.0087,-0.0004,-0.0076,-0.0188,0.1804,0
10667158,0.9999,-0.0072,0.0087,-0.0004,0.0107,-0.0092,0.1687,0
10667325,0.9999,-0.0072,0.0087,-0.0005,0.0054,-0.0068,0.1724,0
10667491,0.9999,-0.0072,0.0087,-0.0005,0.0202,-0.0127,0.1853,0
10667658,0.9999,-0.0074,0.0087,-0.0005,0.0080,-0.0067,0.1751,0
10667825,0.9999,-0.0074,0.0087,-0.0005,0.0104,-0.0263,0.1754,0
10667991,0.9999,-0.0074,0.0087,-0.0004,0.0015,0.0030,0.1714,0
10668158,0.9999,-0.0074,0.0087,-0.0004,-0.0124,-0.0100,0.1698,0
10668325,0.9999,-0.0074,0.0087,-0.0004,-0.0171,-0.0031,0.1562,0
10668491,0.9999,-0.0074,0.0087,-0.0005,0.0002,-0.0018,0.1512,0
10668658,0.9999,-0.0074,0.0087,-0.0005,0.0083,-0.0022,0.1672,0
10668825,0.9999,-0.0074,0.0087,-0.0004,-0.0029,-0.0070,0.1770,0
10668991,0.9999,-0.0074,0.0086,-0.0005,0.0153,0.0018,0.1586,0
10669158,0.9999,-0.0074,0.0087,-0.0005,0.0033,-0.0132,0.1763,0
10669325,0.9999,-0.0074,0.0087,-0.0005,0.0019,-0.0211,0.1391,0
10669491,0.9999,-0.0074,0.0087,-0.0005,-0.0114,-0.0039,0.1721,0
10669658,0.9999,-0.0073,0.0086,-0.0005,0.0177,-0.0103,0.1881,0
10669825,0.9999,-0.0073,0.0086,-0.0005,-0.0003,0.0055,0.1815,0
10669991,0.9999,-0.0073,0.0086,-0.0005,0.0166,-0.0098,0.1868,0
10670158,0.9999,-0.0073,0.0086,-0.0005,0.0063,0.0008,0.1687,0
10670325,0.9999,-0.0073,0.0086,-0.0005,-0.0057,-0.0000,0.1742,0
10670491,0.9999,-0.0073,0.0086,-0.0005,-0.0038,-0.0043,0.1615,0
10670658,0.9999,-0.0073,0.0086,-0.0005,-0.0033,-0.0212,0.1602,0
10670825,0.9999,-0.0073,0.0086,-0.0005,0.0004,-0.0023,0.1657,0
10670991,0.9999,-0.0073,0.0086,-0.0005,-0.0061,-0.0149,0.1719,0
10671158,0.9999,-0.0073,0.0086,-0.0005,0.0140,-0.0190,0.1745,0
10671325,0.9999,-0.0073,0.0086,-0.0005,-0.0138,0.0046,0.1847,0
10671491,0.9999,-0.0073,0.0086,-0.0005,0.0090,-0.0001,0.1708,0
10671658,0.9999,-0.0073,0.0086,-0.0005,-0.0101,-0.0087,0.1642,0
10671825,0.9999,-0.0074,0.0086,-0.0005,0.0013,-0.0136,0.1798,0
10671991,0.9999,-0.0073,0.0086,-0.0005,0.0107,-0.0103,0.1719,0
10672158,0.9999,-0.0073,0.0086,-0.0005,0.0073,-0.0155,0.1622,0
10672325,0.9999,-0.0073,0.0086,-0.0005,0.0039,-0.0154,0.1606,0
10672491,0.9999,-0.0073,0.0086,-0.0005,0.0040,0.0052,0.1644,0
10672658,0.9999,-0.0073,0.0086,-0.0005,0.0100,-0.0040,0.1777,0
10672825,0.9999,-0.0073,0.0086,-0.0005,-0.0053,-0.0082,0.1495,0
10672991,0.9999,-0.0073,0.0086,-0.0005,-0.0030,-0.0032,0.1564,0
10673158,0.9999,-0.0073,0.0086,-0.0005,0.0136,-0.0158,0.1810,0
10673325,0.9999,-0.0073,0.0086,-0.0005,0.0012,0.0027,0.1694,0
10673491,0.9999,-0.0073,0.0086,-0.0005,0.0137,0.0016,0.1705,0
10673658,0.9999,-0.0073,0.0086,-0.0005,0.0108,-0.0060,0.1608,0
10673825,0.9999,-0.0073,0.0086,-0.0005,-0.0053,-0.0094,0.2017,0
10673991,0.9999,-0.0073,0.0086,-0.0006,-0.0088,-0.0022,0.1755,0
10674158,0.9999,-0.0073,0.0086,-0.0006,0.0107,-0.0099,0.1853,0
10674325,0.9999,-0.0073,0.0086,-0.0006,0.0059,-0.0153,0.1671,0
10674491,0.9999,-0.0073,0.0086,-0.0005,-0.0027,-0.0038,0.1645,0
10674658,0.9999,-0.0073,0.0086,-0.0005,0.0116,-0.0123,0.1732,0
10674825,0.9999,-0.0073,0.0086,-0.0005,0.0030,0.0007,0.1673,0
10674991,0.9999,-0.0073,0.0086,-0.0005,-0.0015,-0.0133,0.1776,0
10675158,0.9999,-0.0073,0.0086,-0.0005,-0.0073,-0.0037,0.1883,0
10675325,0.9999,-0.0073,0.0086,-0.0005,0.0120,-0.0053,0.1822,0
10675491,0.9999,-0.0073,0.0086,-0.0005,0.0075,-0.0068,0.1714,0
10675658,0.9999,-0.0073,0.0086,-0.0005,0.0078,-0.0117,0.1779,0
10675825,0.9999,-0.0073,0.0086,-0.0005,0.0079,-0.0100,0.1707,0
10675991,0.9999,-0.0073,0.0086,-0.0005,-0.0007,-0.0043,0.1707,0
10676158,0.9999,-0.0073,0.0086,-0.0005,-0.0008,-0.0273,0.1683,0
10676325,0.9999,-0.0073,0.0086,-0.0005,-0.0134,0.0011,0.1748,0
10676491,0.9999,-0.0073,0.0086,-0.0005,0.0001,-0.0055,0.1517,0
10676658,0.9999,-0.0073,0.0086,-0.0005,-0.0006,0.0087,0.1670,0
10676825,0.9999,-0.0073,0.0086,-0.0005,-0.0106,-0.0075,0.1683,0
10676991,0.9999,-0.0073,0.0086,-0.0005,0.0026,-0.0012,0.1770,0
10677158,0.9999,-0.0073,0.0086,-0.0005,-0.0162,-0.0012,0.1655,0
10677325,0.9999,-0.0073,0.0086,-0.0005,0.0001,-0.0119,0.1725,0
10677491,0.9999,-0.0073,0.0086,-0.0005,-0.0145,0.0012,0.1648,0
10677658,0.9999,-0.0073,0.0086,-0.0005,-0.0120,-0.0070,0.1712,0
10677825,0.9999,-0.0073,0.0086,-0.0005,0.0056,-0.0036,0.2088,0
10677992,0.9999,-0.0073,0.0086,-0.0005,-0.0007,-0.0027,0.1736,0
10678158,0.9999,-0.0073,0.0086,-0.0006,0.0167,-0.0101,0.1657,0
10678325,0.9999,-0.0073,0.0086,-0.0006,0.0081,0.0049,0.1756,0
10678492,0.9999,-0.0073,0.0086,-0.0006,-0.0002,-0.0172,0.1718,0
10678658,0.9999,-0.0073,0.0086,-0.0006,0.0062,-0.0127,0.1794,0
10678825,0.9999,-0.0073,0.0086,-0.0006,-0.0117,-0.0092,0.1719,0
10678992,0.9999,-0.0073,0.0086,-0.0006,0.0041,-0.0031,0.1765,0
10679158,0.9999,-0.0073,0.0086,-0.0006,0.0085,-0.0107,0.1625,0
10679325,0.9999,-0.0073,0.0086,-0.0006,-0.0025,-0.0046,0.1799,0
10679492,0.9999,-0.0072,0.0086,-0.0006,0.0003,-0.0143,0.1585,0
10679658,0.9999,-0.0072,0.0086,-0.0006,-0.0076,-0.0124,0.1747,0
10679825,0.9999,-0.0072,0.0086,-0.0006,0.0007,-0.0065,0.1642,0
10679992,0.9999,-0.0072,0.0086,-0.0006,-0.0030,-0.0115,0.1663,0
10680158,0.9999,-0.0072,0.0086,-0.0006,0.0138,-0.0102,0.1929,0
10680325,0.9999,-0.0072,0.0086,-0.0006,0.0051,-0.0108,0.1455,0
10680492,0.9999,-0.0072,0.0086,-0.0006,0.0218,-0.0031,0.1558,0
10680658,0.9999,-0.0072,0.0086,-0.0006,0.0087,-0.0163,0.1676,0
10680825,0.9999,-0.0072,0.0086,-0.0006,-0.0016,-0.0134,0.1894,0
10680992,0.9999,-0.0072,0.0086,-0.0006,-0.0069,-0.0003,0.1615,0
10681158,0.9999,-0.0072,0.0086,-0.0006,0.0163,0.0051,0.1571,0
10681325,0.9999,-0.0072,0.0086,-0.0006,0.0104,0.0042,0.1747,0
10681492,0.9999,-0.0072,0.0086,-0.0006,0.0062,-0.0130,0.1808,0
10681658,0.9999,-0.0072,0.0086,-0.0006,0.0046,-0.0215,0.1519,0
10681825,0.9999,-0.0072,0.0086,-0.0006,-0.0110,0.0020,0.1652,0
10681992,0.9999,-0.0072,0.0086,-0.0006,-0.0016,-0.0036,0.1553,0
10682158,0.9999,-0.0072,0.0086,-0.0006,0.0067,-0.0198,0.1923,0
10682325,0.9999,-0.0072,0.0086,-0.0006,-0.0071,-0.0103,0.1537,0
10682492,0.9999,-0.0072,0.0086,-0.0006,0.0006,-0.0082,0.1818,0
10682658,0.9999,-0.0072,0.0086,-0.0006,0.0008,-0.0202,0.1660,0
10682825,0.9999,-0.0072,0.0086,-0.0006,0.0067,-0.0188,0.1758,0
10682992,0.9999,-0.0072,0.0086,-0.0006,0.0129,-0.0190,0.1834,0
10683158,0.9999,-0.0072,0.0086,-0.0006,0.0014,-0.0083,0.1831,0
10683325,0.9999,-0.0072,0.0086,-0.0006,-0.0001,-0.0070,0.1936,0
10683492,0.9999,-0.0072,0.0086,-0.0006,0.0129,-0.0068,0.1897,0
10683658,0.9999,-0.0072,0.0086,-0.0006,0.0094,-0.0186,0.1666,0
10683825,0.9999,-0.0072,0.0086,-0.0006,0.0138,-0.0102,0.1796,0
10683992,0.9999,-0.0072,0.0086,-0.0006,-0.0018,-0.0299,0.1683,0
10684158,0.9999,-0.0072,0.0086,-0.0006,-0.0028,-0.0037,0.1853,0
10684325,0.9999,-0.0072,0.0086,-0.0006,0.0187,0.0027,0.1684,0
10684492,0.9999,-0.0072,0.0086,-0.0006,-0.0004,-0.0056,0.1604,0
10684658,0.9999,-0.0072,0.0086,-0.0006,0.0008,-0.0166,0.1630,0
10684825,0.9999,-0.0072,0.0086,-0.0006,-0.0004,-0.0097,0.1772,0
10684992,0.9999,-0.0072,0.0086,-0.0006,0.0013,-0.0046,0.1812,0
10685158,0.9999,-0.0072,0.0086,-0.0006,0.0022,-0.0091,0.1482,0
10685325,0.9999,-0.0072,0.0086,-0.0006,0.0013,-0.0086,0.1480,0
10685492,0.9999,-0.0072,0.0086,-0.0006,-0.0030,0.0043,0.1619,0
10685658,0.9999,-0.0072,0.0086,-0.0006,-0.0078,-0.0104,0.1559,0
10685825,0.9999,-0.0072,0.0086,-0.0006,0.0090,-0.0198,0.1757,0
10685992,0.9999,-0.0072,0.0086,-0.0006,0.0085,-0.0106,0.1798,0
10686158,0.9999,-0.0072,0.0086,-0.0006,0.0125,-0.0128,0.1613,0
10686325,0.9999,-0.0072,0.0086,-0.0006,0.0159,-0.0169,0.1706,0
10686492,0.9999,-0.0072,0.0086,-0.0006,-0.0029,-0.0018,0.1720,0
10686658,0.9999,-0.0072,0.0086,-0.0006,0.0022,-0.0182,0.1540,0
10686825,0.9999,-0.0072,0.0086,-0.0006,0.0015,-0.0191,0.1748,0
10686992,0.9999,-0.0072,0.0086,-0.0006,-0.0001,-0.0104,0.1910,0
10687158,0.9999,-0.0072,0.0086,-0.0006,0.0045,-0.0051,0.1666,0
10687325,0.9999,-0.0072,0.0086,-0.0006,-0.0102,-0.0113,0.1650,0
10687492,0.9999,-0.0072,0.0086,-0.0006,0.0112,-0.0197,0.1473,0
10687658,0.9999,-0.0074,0.0087,-0.0005,0.0014,-0.0132,0.1621,0
10687825,0.9999,-0.0074,0.0087,-0.0005,-0.0156,-0.0170,0.1648,0
10687992,0.9999,-0.0074,0.0087,-0.0005,-0.0083,0.0044,0.1787,0
10688158,0.9999,-0.0074,0.0087,-0.0005,-0.0060,-0.0092,0.1791,0
10688325,0.9999,-0.0074,0.0087,-0.0005,-0.0022,-0.0110,0.1860,0
10688492,0.9999,-0.0074,0.0087,-0.0005,0.0044,-0.0029,0.1800,0
10688658,0.9999,-0.0074,0.0087,-0.0005,0.0093,-0.0017,0.1758,0
10688825,0.9999,-0.0074,0.0087,-0.0005,0.0077,-0.0055,0.1715,0
10688992,0.9999,-0.0074,0.0087,-0.0005,0.0182,-0.0126,0.1746,0
10689158,0.9999,-0.0074,0.0087,-0.0005,0.0099,0.0001,0.1874,0
10689325,0.9999,-0.0074,0.0087,-0.0005,-0.0085,-0.0004,0.1642,0
10689492,0.9999,-0.0074,0.0087,-0.0005,-0.0001,-0.0127,0.1837,0
10689658,0.9999,-0.0074,0.0087,-0.0005,-0.0054,0.0117,0.1846,0
10689825,0.9999,-0.0074,0.0087,-0.0005,-0.0056,-0.0126,0.1839,0
10689992,0.9999,-0.0074,0.0087,-0.0005,-0.0039,0.0023,0.1683,0
10690158,0.9999,-0.0074,0.0087,-0.0005,-0.0070,-0.0062,0.1774,0
10690325,0.9999,-0.0074,0.0087,-0.0005,0.0086,0.0147,0.1472,0
10690492,0.9999,-0.0074,0.0087,-0.0005,0.0096,-0.0057,0.1628,0
10690658,0.9999,-0.0074,0.0087,-0.0005,0.0040,-0.0011,0.1740,0
10690825,0.9999,-0.0074,0.0087,-0.0005,-0.0063,-0.0103,0.1680,0
10690992,0.9999,-0.0074,0.0087,-0.0005,0.0184,-0.0073,0.1842,0
10691158,0.9999,-0.0074,0.0087,-0.0005,-0.0035,-0.0021,0.1816,0
10691325,0.9999,-0.0074,0.0087,-0.0005,-0.0009,-0.0032,0.1938,0
10691492,0.9999,-0.0074,0.0087,-0.0005,-0.0036,-0.0073,0.1792,0
10691658,0.9999,-0.0074,0.0087,-0.0006,-0.0087,0.0041,0.1752,0
10691825,0.9999,-0.0074,0.0087,-0.0006,0.0126,-0.0060,0.1800,0
10691992,0.9999,-0.0074,0.0087,-0.0006,0.0090,-0.0036,0.1689,0
10692158,0.9999,-0.0074,0.0087,-0.0006,-0.0077,-0.0042,0.1693,0
10692325,0.9999,-0.0074,0.0087,-0.0006,0.0156,-0.0086,0.1731,0
10692492,0.9999,-0.0074,0.0087,-0.0006,0.0061,-0.0124,0.1726,0
10692658,0.9999,-0.0074,0.0087,-0.0006,-0.0032,-0.0056,0.1709,0
10692825,0.9999,-0.0074,0.0087,-0.0006,0.0059,-0.0034,0.1722,0
10692992,0.9999,-0.0074,0.0087,-0.0006,-0.0065,0.0111,0.1553,0
10693158,0.9999,-0.0074,0.0087,-0.0006,0.0033,-0.0219,0.1954,0
10693325,0.9999,-0.0074,0.0087,-0.0006,-0.0026,-0.0064,0.1590,0
10693492,0.9999,-0.0074,0.0087,-0.0006,0.0054,-0.0091,0.1712,0
10693658,0.9999,-0.0074,0.0087,-0.0006,0.0002,-0.0144,0.1697,0
10693825,0.9999,-0.0074,0.0087,-0.0006,0.0184,0.0059,0.1516,0
10693992,0.9999,-0.0074,0.0087,-0.0006,0.0027,0.0013,0.2046,0
10694158,0.9999,-0.0074,0.0087,-0.0006,0.0001,-0.0049,0.1678,0
10694325,0.9999,-0.0074,0.0087,-0.0006,0.0143,0.0011,0.1625,0
10694492,0.9999,-0.0074,0.0087,-0.0006,0.0026,0.0046,0.2023,0
10694659,0.9999,-0.0074,0.0087,-0.0006,0.0091,0.0077,0.1601,0
10694825,0.9999,-0.0074,0.0087,-0.0006,0.0200,-0.0200,0.1696,0
10694992,0.9999,-0.0074,0.0087,-0.0006,0.0060,0.0049,0.2089,0
10695159,0.9999,-0.0074,0.0087,-0.0006,0.0012,-0.0101,0.1435,0
10695325,0.9999,-0.0074,0.0087,-0.0006,0.0003,-0.0028,0.1924,0
10695492,0.9999,-0.0074,0.0087,-0.0006,-0.0077,-0.0083,0.1899,0
10695659,0.9999,-0.0074,0.0087,-0.0006,-0.0039,-0.0035,0.1542,0
10695825,0.9999,-0.0074,0.0087,-0.0006,-0.0004,0.0015,0.1827,0
10695992,0.9999,-0.0074,0.0087,-0.0006,0.0030,-0.0000,0.1650,0
10696159,0.9999,-0.0074,0.0087,-0.0006,-0.0057,0.0071,0.1826,0
10696325,0.9999,-0.0074,0.0087,-0.0006,0.0000,-0.0059,0.1804,0
10696492,0.9999,-0.0074,0.0087,-0.0006,0.0010,-0.0018,0.1619,0
10696659,0.9999,-0.0074,0.0087,-0.0006,-0.0013,0.0116,0.1834,0
10696825,0.9999,-0.0074,0.0087,-0.0006,-0.0064,-0.0107,0.1852,0
10696992,0.9999,-0.0074,0.0087,-0.0006,0.0102,-0.0085,0.1526,0
10697159,0.9999,-0.0074,0.0087,-0.0006,0.0074,-0.0104,0.1898,0
10697325,0.9999,-0.0074,0.0087,-0.0006,0.0027,-0.0052,0.1451,0
10697492,0.9999,-0.0074,0.0087,-0.0006,0.0144,-0.0082,0.1404,0
10697659,0.9999,-0.0074,0.0087,-0.0006,-0.0006,-0.0099,0.1757,0
10697825,0.9999,-0.0074,0.0087,-0.0006,0.0052,-0.0116,0.1584,0
10697992,0.9999,-0.0074,0.0087,-0.0006,0.0178,-0.0228,0.1795,0
10698159,0.9999,-0.0074,0.0087,-0.0006,0.0009,-0.0091,0.1803,0
10698325,0.9999,-0.0074,0.0087,-0.0006,-0.0088,-0.0033,0.1569,0
10698492,0.9999,-0.0074,0.0087,-0.0006,-0.0064,-0.0145,0.1754,0
10698659,0.9999,-0.0074,0.0087,-0.0006,0.0164,-0.0029,0.1635,0
10698825,0.9999,-0.0074,0.0087,-0.0006,0.0094,-0.0010,0.1800,0
10698992,0.9999,-0.0074,0.0087,-0.0006,0.0099,-0.0201,0.1757,0
10699159,0.9999,-0.0074,0.0087,-0.0006,0.0086,-0.0003,0.1536,0
10699325,0.9999,-0.0074,0.0087,-0.0006,0.0058,-0.0032,0.1667,0
10699492,0.9999,-0.0074,0.0087,-0.0006,0.0042,-0.0058,0.1755,0
10699659,0.9999,-0.0074,0.0087,-0.0005,-0.0105,-0.0310,0.1613,0
10699825,0.9999,-0.0074,0.0087,-0.0005,0.0037,-0.0100,0.1844,0
10699992,0.9999,-0.0074,0.0087,-0.0005,-0.0075,-0.0113,0.1672,0
10700159,0.9999,-0.0074,0.0087,-0.0005,0.0110,-0.0065,0.1764,0
10700325,0.9999,-0.0074,0.0087,-0.0005,0.0074,-0.0068,0.1825,0
10700492,0.9999,-0.0074,0.0088,-0.0005,0.0108,-0.0003,0.1781,0
10700659,0.9999,-0.0073,0.0088,-0.0005,0.0081,-0.0053,0.1548,0
10700825,0.9999,-0.0073,0.0088,-0.0005,0.0086,-0.0118,0.1779,0
10700992,0.9999,-0.0073,0.0088,-0.0005,0.0004,-0.0165,0.1623,0
10701159,0.9999,-0.0073,0.0088,-0.0005,0.0069,-0.0187,0.1503,0
10701325,0.9999,-0.0074,0.0088,-0.0005,0.0087,-0.0211,0.2005,0
10701492,0.9999,-0.0074,0.0088,-0.0005,0.0039,-0.0102,0.1665,0
10701659,0.9999,-0.0074,0.0087,-0.0005,0.0168,0.0048,0.1766,0
10701825,0.9999,-0.0074,0.0087,-0.0005,-0.0127,-0.0009,0.1915,0
10701992,0.9999,-0.0074,0.0087,-0.0006,0.0100,-0.0155,0.1535,0
10702159,0.9999,-0.0073,0.0087,-0.0006,0.0042,-0.0025,0.1932,0
10702325,0.9999,-0.0073,0.0087,-0.0006,0.0042,-0.0015,0.1839,0
10702492,0.9999,-0.0073,0.0087,-0.0006,0.0039,-0.0053,0.1726,0
10702659,0.9999,-0.0073,0.0088,-0.0005,-0.0156,-0.0078,0.1857,0
10702825,0.9999,-0.0073,0.0088,-0.0006,0.0088,-0.0094,0.1750,0
10702992,0.9999,-0.0073,0.0088,-0.0006,0.0140,-0.0187,0.1687,0
10703159,0.9999,-0.0073,0.0088,-0.0006,0.0066,-0.0094,0.1735,0
10703325,0.9999,-0.0074,0.0088,-0.0006,0.0282,-0.0097,0.1678,0
10703492,0.9999,-0.0074,0.0088,-0.0005,-0.0032,-0.0144,0.1721,0
10703659,0.9999,-0.0073,0.0088,-0.0005,0.0012,0.0063,0.1578,0
10703825,0.9999,-0.0074,0.0087,-0.0005,-0.0046,-0.0186,0.1762,0
10703992,0.9999,-0.0074,0.0087,-0.0005,-0.0081,-0.0033,0.1764,0
10704159,0.9999,-0.0074,0.0088,-0.0005,0.0111,-0.0116,0.1775,0
10704325,0.9999,-0.0074,0.0088,-0.0005,0.0046,0.0000,0.1678,0
10704492,0.9999,-0.0074,0.0088,-0.0005,0.0029,-0.0027,0.1734,0
10704659,0.9999,-0.0074,0.0088,-0.0005,0.0053,-0.0048,0.1621,0
10704825,0.9999,-0.0074,0.0087,-0.0005,0.0199,-0.0079,0.1699,0
10704992,0.9999,-0.0074,0.0087,-0.0005,0.0086,-0.0212,0.1783,0
10705159,0.9999,-0.0074,0.0087,-0.0005,0.0081,-0.0015,0.1549,0
10705325,0.9999,-0.0074,0.0088,-0.0005,0.0009,-0.0181,0.1660,0
10705492,0.9999,-0.0074,0.0088,-0.0005,-0.0088,-0.0213,0.1650,0
10705659,0.9999,-0.0074,0.0088,-0.0005,0.0033,-0.0057,0.1574,0
10705825,0.9999,-0.0074,0.0088,-0.0005,-0.0078,0.0082,0.1718,0
10705992,0.9999,-0.0074,0.0088,-0.0005,0.0081,0.0075,0.1861,0
10706159,0.9999,-0.0074,0.0088,-0.0005,-0.0094,-0.0057,0.1753,0
10706325,0.9999,-0.0074,0.0087,-0.0005,0.0031,-0.0160,0.1923,0
10706492,0.9999,-0.0074,0.0088,-0.0005,-0.0021,-0.0174,0.1562,0
10706659,0.9999,-0.0074,0.0088,-0.0005,-0.0055,0.0005,0.1545,0
10706825,0.9999,-0.0074,0.0088,-0.0005,-0.0073,0.0077,0.1730,0
10706992,0.9999,-0.0074,0.0088,-0.0005,0.0163,0.0090,0.1689,0
10707159,0.9999,-0.0074,0.0088,-0.0005,-0.0053,-0.0057,0.1876,0
10707325,0.9999,-0.0074,0.0088,-0.0005,0.0104,-0.0014,0.1804,0
10707492,0.9999,-0.0074,0.0088,-0.0005,0.0090,0.0064,0.1716,0
10707659,0.9999,-0.0074,0.0087,-0.0005,0.0030,-0.0006,0.1869,0
10707825,0.9999,-0.0074,0.0087,-0.0006,0.0046,0.0090,0.1744,0
10707992,0.9999,-0.0074,0.0087,-0.0006,0.0000,-0.0177,0.1595,0
10708159,0.9999,-0.0074,0.0087,-0.0006,-0.0002,-0.0146,0.1510,0
10708325,0.9999,-0.0074,0.0087,-0.0006,-0.0129,-0.0052,0.1567,0
10708492,0.9999,-0.0074,0.0087,-0.0006,0.0103,-0.0025,0.1702,0
10708659,0.9999,-0.0074,0.0087,-0.0006,-0.0036,0.0047,0.1740,0
10708825,0.9999,-0.0074,0.0087,-0.0005,-0.0066,-0.0110,0.1584,0
10708992,0.9999,-0.0074,0.0087,-0.0005,-0.0062,0.0101,0.1585,0
10709159,0.9999,-0.0074,0.0087,-0.0005,-0.0018,-0.0235,0.1904,0
10709325,0.9999,-0.0074,0.0087,-0.0005,0.0035,-0.0067,0.1674,0
10709492,0.9999,-0.0074,0.0087,-0.0006,-0.0117,-0.0001,0.1573,0
10709659,0.9999,-0.0074,0.0087,-0.0005,-0.0038,-0.0004,0.1697,0
10709825,0.9999,-0.0074,0.0087,-0.0005,-0.0116,0.0040,0.1752,0
10709992,0.9999,-0.0074,0.0087,-0.0006,0.0086,-0.0003,0.1672,0
10710159,0.9999,-0.0074,0.0087,-0.0006,0.0034,-0.0111,0.1549,0
10710325,0.9999,-0.0074,0.0087,-0.0006,-0.0080,0.0017,0.1560,0
10710492,0.9999,-0.0074,0.0087,-0.0005,0.0140,0.0066,0.1744,0
10710659,0.9999,-0.0074,0.0087,-0.0005,0.0019,0.0088,0.1974,0
10710825,0.9999,-0.0074,0.0087,-0.0005,0.0061,-0.0100,0.1699,0
10710992,0.9999,-0.0074,0.0087,-0.0005,-0.0046,-0.0032,0.1779,0
10711159,0.9999,-0.0074,0.0087,-0.0005,-0.0013,-0.0029,0.1800,0
10711326,0.9999,-0.0074,0.0087,-0.0005,0.0117,-0.0015,0.1553,0
10711492,0.9999,-0.0074,0.0087,-0.0005,-0.0017,-0.0023,0.1836,0
10711659,0.9999,-0.0074,0.0087,-0.0005,0.0048,-0.0109,0.1870,0
10711826,0.9999,-0.0074,0.0087,-0.0005,-0.0001,-0.0008,0.1745,0
10711992,0.9999,-0.0074,0.0087,-0.0006,-0.0007,0.0034,0.1786,0
10712159,0.9999,-0.0074,0.0087,-0.0006,-0.0102,-0.0072,0.1564,0
10712326,0.9999,-0.0074,0.0087,-0.0006,0.0040,-0.0169,0.1694,0
10712492,0.9999,-0.0074,0.0087,-0.0006,0.0098,-0.0115,0.1757,0
10712659,0.9999,-0.0074,0.0087,-0.0006,-0.0015,-0.0056,0.1531,0
10712826,0.9999,-0.0074,0.0087,-0.0006,0.0089,-0.0090,0.1834,0
10712992,0.9999,-0.0074,0.0087,-0.0006,0.0041,-0.0020,0.2001,0
10713159,0.9999,-0.0074,0.0087,-0.0006,0.0003,-0.0074,0.1716,0
10713326,0.9999,-0.0074,0.0087,-0.0006,0.0026,-0.0034,0.1552,0
10713492,0.9999,-0.0074,0.0087,-0.0006,-0.0079,-0.0015,0.1718,0
10713659,0.9999,-0.0074,0.0087,-0.0006,0.0167,-0.0004,0.1793,0
10713826,0.9999,-0.0074,0.0087,-0.0006,0.0024,0.0035,0.1744,0
10713992,0.9999,-0.0074,0.0087,-0.0006,-0.0045,-0.0125,0.1453,0
10714159,0.9999,-0.0074,0.0087,-0.0006,-0.0001,0.0039,0.1569,0
10714326,0.9999,-0.0074,0.0087,-0.0006,-0.0078,0.0073,0.1723,0
10714492,0.9999,-0.0074,0.0087,-0.0006,0.0134,-0.0012,0.1644,0
10714659,0.9999,-0.0074,0.0087,-0.0006,0.0033,-0.0086,0.1421,0
10714826,0.9999,-0.0074,0.0087,-0.0006,-0.0011,-0.0026,0.1852,0
10714992,0.9999,-0.0074,0.0087,-0.0006,0.0020,-0.0120,0.1933,0
10715159,0.9999,-0.0074,0.0087,-0.0006,-0.0008,-0.0128,0.1867,0
10715326,0.9999,-0.0074,0.0087,-0.0006,-0.0008,-0.0163,0.1704,0
10715492,0.9999,-0.0074,0.0087,-0.0005,-0.0020,-0.0039,0.1670,0
10715659,0.9999,-0.0074,0.0087,-0.0006,-0.0103,-0.0004,0.1796,0
10715826,0.9999,-0.0074,0.0087,-0.0006,-0.0051,-0.0040,0.1859,0
10715992,0.9999,-0.0074,0.0087,-0.0006,0.0071,0.0019,0.1449,0
10716159,0.9999,-0.0074,0.0087,-0.0006,-0.0089,-0.0091,0.1722,0
10716326,0.9999,-0.0074,0.0087,-0.0006,0.0040,-0.0044,0.1753,0
10716492,0.9999,-0.0074,0.0087,-0.0006,0.0028,-0.0113,0.1621,0
10716659,0.9999,-0.0074,0.0087,-0.0006,-0.0052,-0.0120,0.1678,0
10716826,0.9999,-0.0074,0.0087,-0.0006,0.0031,0.0045,0.1615,0
10716992,0.9999,-0.0074,0.0087,-0.0006,0.0032,-0.0099,0.1499,0
10717159,0.9999,-0.0074,0.0087,-0.0006,-0.0231,-0.0003,0.1844,0
10717326,0.9999,-0.0074,0.0087,-0.0006,0.0103,-0.0150,0.1679,0
10717492,0.9999,-0.0074,0.0087,-0.0006,0.0042,-0.0095,0.1812,0
10717659,0.9999,-0.0074,0.0087,-0.0006,0.0042,-0.0008,0.1556,0
10717826,0.9999,-0.0074,0.0087,-0.0006,-0.0028,-0.0047,0.1692,0
10717992,0.9999,-0.0074,0.0087,-0.0006,-0.0100,-0.0142,0.1858,0
10718159,0.9999,-0.0074,0.0087,-0.0006,0.0109,-0.0101,0.1659,0
10718326,0.9999,-0.0074,0.0087,-0.0006,0.0188,-0.0015,0.1768,0
10718492,0.9999,-0.0074,0.0087,-0.0005,0.0065,-0.0142,0.1663,0
10718659,0.9999,-0.0074,0.0087,-0.0005,0.0015,-0.0087,0.1738,0
10718826,0.9999,-0.0074,0.0087,-0.0005,0.0086,-0.0102,0.1559,0
10718992,0.9999,-0.0074,0.0087,-0.0005,0.0085,-0.0092,0.1743,0
10719159,0.9999,-0.0074,0.0088,-0.0005,-0.0103,-0.0133,0.1720,0
10719326,0.9999,-0.0074,0.0087,-0.0005,-0.0076,-0.0075,0.1757,0
10719492,0.9999,-0.0074,0.0087,-0.0005,0.0025,-0.0085,0.1590,0
10719659,0.9999,-0.0074,0.0088,-0.0005,-0.0031,0.0031,0.1766,0
10719826,0.9999,-0.0074,0.0088,-0.0005,-0.0003,-0.0175,0.1790,0
10719992,0.9999,-0.0074,0.0088,-0.0005,-0.0048,-0.0025,0.1739,0
10720159,0.9999,-0.0073,0.0087,-0.0005,-0.0158,-0.0163,0.1720,0
10720326,0.9999,-0.0073,0.0087,-0.0005,-0.0085,-0.0071,0.1864,0
10720492,0.9999,-0.0073,0.0087,-0.0005,0.0049,-0.0293,0.1716,0
10720659,0.9999,-0.0073,0.0088,-0.0005,-0.0018,-0.0222,0.1887,0
10720826,0.9999,-0.0074,0.0088,-0.0005,0.0011,-0.0133,0.1772,0
10720992,0.9999,-0.0074,0.0088,-0.0005,-0.0026,-0.0023,0.1692,0
10721159,0.9999,-0.0074,0.0088,-0.0005,0.0017,-0.0115,0.1771,0
10721326,0.9999,-0.0074,0.0088,-0.0005,-0.0049,-0.0217,0.1706,0
10721492,0.9999,-0.0074,0.0088,-0.0005,-0.0061,-0.0090,0.1650,0
10721659,0.9999,-0.0074,0.0088,-0.0005,-0.0037,-0.0028,0.1743,0
10721826,0.9999,-0.0074,0.0088,-0.0005,-0.0013,-0.0087,0.1779,0
10721992,0.9999,-0.0074,0.0088,-0.0005,0.0053,-0.0165,0.1725,0
10722159,0.9999,-0.0073,0.0088,-0.0005,0.0108,-0.0130,0.1719,0
10722326,0.9999,-0.0073,0.0088,-0.0005,-0.0020,-0.0170,0.1852,0
10722492,0.9999,-0.0073,0.0088,-0.0005,0.0063,-0.0153,0.1778,0
10722659,0.9999,-0.0073,0.0088,-0.0005,0.0040,-0.0066,0.1916,0
10722826,0.9999,-0.0073,0.0088,-0.0005,0.0044,0.0027,0.1770,0
10722992,0.9999,-0.0073,0.0088,-0.0005,0.0016,-0.0078,0.1567,0
10723159,0.9999,-0.0073,0.0088,-0.0005,0.0121,-0.0139,0.1640,0
10723326,0.9999,-0.0073,0.0087,-0.0005,-0.0075,-0.0070,0.1858,0
10723492,0.9999,-0.0073,0.0087,-0.0005,-0.0070,-0.0102,0.1702,0
10723659,0.9999,-0.0073,0.0087,-0.0005,0.0022,-0.0039,0.1857,0
10723826,0.9999,-0.0073,0.0088,-0.0005,0.0134,-0.0219,0.1793,0
10723992,0.9999,-0.0073,0.0088,-0.0005,-0.0060,-0.0084,0.1688,0
10724159,0.9999,-0.0073,0.0088,-0.0005,0.0013,-0.0032,0.1754,0
10724326,0.9999,-0.0073,0.0088,-0.0005,-0.0027,-0.0065,0.1825,0
10724492,0.9999,-0.0073,0.0088,-0.0005,0.0083,-0.0173,0.1644,0
10724659,0.9999,-0.0073,0.0088,-0.0005,0.0178,-0.0030,0.1805,0
10724826,0.9999,-0.0073,0.0088,-0.0005,0.0086,-0.0070,0.1652,0
10724992,0.9999,-0.0073,0.0087,-0.0005,0.0035,-0.0031,0.1802,0
10725159,0.9999,-0.0073,0.0088,-0.0005,0.0020,0.0007,0.1636,0
10725326,0.9999,-0.0073,0.0088,-0.0005,0.0098,-0.0033,0.1559,0
10725492,0.9999,-0.0073,0.0088,-0.0005,0.0067,-0.0045,0.1639,0
10725659,0.9999,-0.0073,0.0088,-0.0006,0.0134,-0.0129,0.1560,0
10725826,0.9999,-0.0073,0.0088,-0.0005,0.0145,-0.0105,0.1652,0
10725992,0.9999,-0.0073,0.0088,-0.0005,-0.0002,-0.0128,0.1495,0
10726159,0.9999,-0.0073,0.0088,-0.0005,-0.0013,-0.0084,0.1667,0
10726326,0.9999,-0.0073,0.0088,-0.0005,0.0059,0.0115,0.1776,0
10726492,0.9999,-0.0073,0.0088,-0.0005,0.0069,0.0005,0.1561,0
10726659,0.9999,-0.0073,0.0088,-0.0005,0.0094,-0.0222,0.1687,0
10726826,0.9999,-0.0073,0.0088,-0.0005,-0.0055,0.0030,0.1529,0
10726992,0.9999,-0.0073,0.0088,-0.0005,-0.0060,-0.0044,0.1573,0
10727159,0.9999,-0.0073,0.0088,-0.0005,0.0087,-0.0051,0.1881,0
10727326,0.9999,-0.0073,0.0088,-0.0005,0.0017,-0.0046,0.1760,0
10727492,0.9999,-0.0073,0.0088,-0.0005,0.0052,-0.0075,0.1763,0
10727659,0.9999,-0.0074,0.0086,-0.0006,0.0074,-0.0042,0.1662,0
10727826,0.9999,-0.0074,0.0086,-0.0005,0.0102,-0.0055,0.1771,0
10727993,0.9999,-0.0074,0.0086,-0.0005,-0.0117,0.0044,0.1767,0
10728159,0.9999,-0.0074,0.0086,-0.0005,-0.0032,-0.0113,0.1820,0
10728326,0.9999,-0.0074,0.0086,-0.0005,0.0002,0.0024,0.1812,0
10728493,0.9999,-0.0074,0.0086,-0.0005,-0.0054,0.0044,0.1695,0
10728659,0.9999,-0.0074,0.0086,-0.0005,0.0024,-0.0076,0.1743,0
10728826,0.9999,-0.0073,0.0086,-0.0005,-0.0136,-0.0080,0.1634,0
10728993,0.9999,-0.0073,0.0086,-0.0005,0.0019,-0.0100,0.1703,0
10729159,0.9999,-0.0073,0.0086,-0.0005,-0.0031,-0.0092,0.1527,0
10729326,0.9999,-0.0073,0.0086,-0.0005,0.0040,-0.0085,0.1835,0
10729493,0.9999,-0.0073,0.0086,-0.0005,-0.0088,0.0058,0.1569,0
10729659,0.9999,-0.0073,0.0086,-0.0005,0.0066,0.0051,0.1581,0
10729826,0.9999,-0.0073,0.0086,-0.0005,0.0061,-0.0059,0.1891,0
10729993,0.9999,-0.0073,0.0086,-0.0005,0.0008,-0.0018,0.1832,0
10730159,0.9999,-0.0073,0.0086,-0.0005,0.0036,-0.0197,0.1800,0
10730326,0.9999,-0.0073,0.0086,-0.0005,-0.0016,-0.0091,0.1786,0
10730493,0.9999,-0.0073,0.0086,-0.0005,0.0095,-0.0075,0.1591,0
10730659,0.9999,-0.0073,0.0086,-0.0005,0.0085,-0.0025,0.1784,0
10730826,0.9999,-0.0073,0.0086,-0.0005,-0.0091,-0.0149,0.1595,0
10730993,0.9999,-0.0073,0.0086,-0.0005,-0.0001,-0.0168,0.1674,0
10731159,0.9999,-0.0073,0.0086,-0.0006,-0.0075,-0.0133,0.1718,0
10731326,0.9999,-0.0073,0.0086,-0.0006,-0.0067,-0.0106,0.1828,0
10731493,0.9999,-0.0073,0.0086,-0.0006,-0.0025,0.0001,0.1637,0
10731659,0.9999,-0.0073,0.0086,-0.0005,0.0048,0.0058,0.1724,0
10731826,0.9999,-0.0073,0.0086,-0.0005,0.0072,-0.0022,0.1750,0
10731993,0.9999,-0.0073,0.0086,-0.0005,0.0233,-0.0173,0.1753,0
10732159,0.9999,-0.0073,0.0086,-0.0005,-0.0072,-0.0047,0.1755,0
10732326,0.9999,-0.0073,0.0086,-0.0005,0.0033,-0.0240,0.1665,0
10732493,0.9999,-0.0073,0.0086,-0.0006,-0.0105,-0.0093,0.1773,0
10732659,0.9999,-0.0073,0.0086,-0.0006,-0.0014,-0.0069,0.1806,0
10732826,0.9999,-0.0073,0.0086,-0.0005,-0.0034,-0.0171,0.1786,0
10732993,0.9999,-0.0073,0.0086,-0.0005,0.0092,-0.0067,0.1621,0
10733159,0.9999,-0.0073,0.0086,-0.0005,0.0002,-0.0137,0.1692,0
10733326,0.9999,-0.0073,0.0086,-0.0005,-0.0142,-0.0146,0.1858,0
10733493,0.9999,-0.0073,0.0086,-0.0005,-0.0056,-0.0115,0.1692,0
10733659,0.9999,-0.0073,0.0086,-0.0005,0.0089,-0.0021,0.1792,0
10733826,0.9999,-0.0073,0.0086,-0.0005,-0.0055,-0.0084,0.1633,0
10733993,0.9999,-0.0073,0.0086,-0.0005,-0.0085,0.0027,0.1712,0
10734159,0.9999,-0.0073,0.0086,-0.0005,0.0008,-0.0141,0.1768,0
10734326,0.9999,-0.0073,0.0086,-0.0005,0.0104,-0.0154,0.1823,0
10734493,0.9999,-0.0073,0.0086,-0.0005,0.0010,0.0019,0.1601,0
10734659,0.9999,-0.0073,0.0086,-0.0005,-0.0005,-0.0079,0.1707,0
10734826,0.9999,-0.0073,0.0086,-0.0005,-0.0064,-0.0011,0.1689,0
10734993,0.9999,-0.0073,0.0086,-0.0006,-0.0064,-0.0069,0.1782,0
10735159,0.9999,-0.0073,0.0086,-0.0005,-0.0064,-0.0076,0.1780,0
10735326,0.9999,-0.0073,0.0086,-0.0006,0.0039,-0.0177,0.1889,0
10735493,0.9999,-0.0073,0.0086,-0.0005,-0.0097,-0.0238,0.1888,0
10735659,0.9999,-0.0073,0.0086,-0.0005,0.0059,-0.0262,0.1741,0
10735826,0.9999,-0.0073,0.0086,-0.0005,0.0033,-0.0099,0.1756,0
10735993,0.9999,-0.0073,0.0086,-0.0006,0.0072,-0.0162,0.1760,0
10736159,0.9999,-0.0073,0.0086,-0.0006,0.0143,-0.0091,0.1909,0
10736326,0.9999,-0.0073,0.0086,-0.0006,0.0014,-0.0149,0.1785,0
10736493,0.9999,-0.0073,0.0086,-0.0006,-0.0088,-0.0157,0.1780,0
10736659,0.9999,-0.0073,0.0087,-0.0005,0.0018,-0.0175,0.1641,0
10736826,0.9999,-0.0073,0.0087,-0.0005,-0.0115,-0.0165,0.1841,0
10736993,0.9999,-0.0073,0.0087,-0.0005,0.0015,-0.0092,0.1694,0
10737159,0.9999,-0.0073,0.0087,-0.0005,-0.0060,-0.0117,0.1642,0
10737326,0.9999,-0.0073,0.0087,-0.0005,0.0010,-0.0075,0.1616,0
10737493,0.9999,-0.0073,0.0087,-0.0005,0.0035,-0.0208,0.1599,0
10737659,0.9999,-0.0073,0.0087,-0.0005,-0.0012,-0.0104,0.1712,0
10737826,0.9999,-0.0073,0.0087,-0.0005,0.0021,-0.0031,0.1723,0
10737993,0.9999,-0.0073,0.0087,-0.0005,0.0072,-0.0153,0.1902,0
10738159,0.9999,-0.0073,0.0087,-0.0005,-0.0020,-0.0015,0.1720,0
10738326,0.9999,-0.0073,0.0087,-0.0005,-0.0060,-0.0169,0.1823,0
10738493,0.9999,-0.0073,0.0087,-0.0005,0.0041,-0.0161,0.1710,0
10738659,0.9999,-0.0073,0.0087,-0.0005,-0.0007,-0.0093,0.1861,0
10738826,0.9999,-0.0073,0.0087,-0.0005,0.0003,0.0037,0.1663,0
10738993,0.9999,-0.0073,0.0087,-0.0005,-0.0108,-0.0044,0.1823,0
10739159,0.9999,-0.0073,0.0087,-0.0005,-0.0084,-0.0106,0.1719,0
10739326,0.9999,-0.0073,0.0087,-0.0005,0.0054,-0.0017,0.1690,0
10739493,0.9999,-0.0073,0.0087,-0.0005,-0.0000,-0.0087,0.1720,0
10739659,0.9999,-0.0073,0.0087,-0.0005,-0.0020,-0.0000,0.1919,0
10739826,0.9999,-0.0073,0.0087,-0.0005,0.0059,-0.0049,0.1665,0
10739993,0.9999,-0.0073,0.0087,-0.0005,-0.0048,-0.0128,0.1735,0
10740159,0.9999,-0.0073,0.0087,-0.0005,-0.0108,-0.0078,0.1748,0
10740326,0.9999,-0.0073,0.0087,-0.0005,0.0098,-0.0002,0.1868,0
10740493,0.9999,-0.0073,0.0086,-0.0005,-0.0053,-0.0046,0.1597,0
10740659,0.9999,-0.0073,0.0086,-0.0005,0.0107,-0.0101,0.1833,0
10740826,0.9999,-0.0073,0.0087,-0.0005,0.0096,-0.0039,0.1819,0
10740993,0.9999,-0.0073,0.0087,-0.0005,0.0000,-0.0050,0.1485,0
10741159,0.9999,-0.0072,0.0087,-0.0005,-0.0023,0.0072,0.1759,0
10741326,0.9999,-0.0073,0.0087,-0.0005,-0.0099,-0.0116,0.1629,0
10741493,0.9999,-0.0073,0.0087,-0.0005,0.0005,-0.0183,0.1798,0
10741659,0.9999,-0.0073,0.0087,-0.0005,-0.0103,-0.0001,0.1716,0
10741826,0.9999,-0.0073,0.0087,-0.0005,0.0015,0.0036,0.1675,0
10741993,0.9999,-0.0073,0.0087,-0.0005,-0.0092,-0.0178,0.1695,0
10742159,0.9999,-0.0073,0.0087,-0.0005,0.0120,-0.0171,0.1708,0
10742326,0.9999,-0.0073,0.0087,-0.0005,0.0097,-0.0019,0.1991,0
10742493,0.9999,-0.0073,0.0087,-0.0005,0.0049,-0.0221,0.1846,0
10742659,0.9999,-0.0073,0.0087,-0.0005,0.0066,-0.0083,0.1754,0
10742826,0.9999,-0.0073,0.0087,-0.0005,0.0026,-0.0142,0.1585,0
10742993,0.9999,-0.0073,0.0087,-0.0005,-0.0031,-0.0189,0.1538,0
10743159,0.9999,-0.0072,0.0087,-0.0005,-0.0014,-0.0164,0.1644,0
10743326,0.9999,-0.0073,0.0087,-0.0005,0.0174,-0.0117,0.1858,0
10743493,0.9999,-0.0073,0.0087,-0.0005,0.0038,0.0071,0.1635,0
10743659,0.9999,-0.0073,0.0087,-0.0005,0.0111,-0.0084,0.1818,0
10743826,0.9999,-0.0073,0.0087,-0.0005,-0.0056,-0.0023,0.1364,0
10743993,0.9999,-0.0073,0.0087,-0.0005,0.0096,-0.0126,0.1634,0
10744159,0.9999,-0.0073,0.0087,-0.0005,-0.0140,0.0014,0.1838,0
10744326,0.9999,-0.0073,0.0087,-0.0005,0.0042,-0.0021,0.1835,0
10744493,0.9999,-0.0073,0.0087,-0.0005,-0.0031,-0.0085,0.1787,0
10744660,0.9999,-0.0073,0.0087,-0.0005,0.0077,-0.0012,0.1785,0
10744826,0.9999,-0.0073,0.0087,-0.0005,-0.0003,-0.0103,0.1710,0
10744993,0.9999,-0.0073,0.0087,-0.0005,-0.0027,-0.0090,0.1687,0
10745160,0.9999,-0.0073,0.0087,-0.0005,0.0010,-0.0112,0.1700,0
10745326,0.9999,-0.0073,0.0087,-0.0005,-0.0000,0.0070,0.1683,0
10745493,0.9999,-0.0073,0.0087,-0.0005,0.0051,0.0041,0.1962,0
10745660,0.9999,-0.0073,0.0087,-0.0005,0.0047,-0.0092,0.1398,0
10745826,0.9999,-0.0073,0.0087,-0.0005,0.0087,-0.0026,0.1705,0
10745993,0.9999,-0.0073,0.0087,-0.0005,-0.0037,0.0020,0.1540,0
10746160,0.9999,-0.0073,0.0087,-0.0005,-0.0075,-0.0085,0.1760,0
10746326,0.9999,-0.0073,0.0087,-0.0005,-0.0006,-0.0051,0.1790,0
10746493,0.9999,-0.0073,0.0087,-0.0005,0.0055,-0.0115,0.1699,0
10746660,0.9999,-0.0073,0.0087,-0.0005,-0.0001,-0.0194,0.1822,0
10746826,0.9999,-0.0073,0.0087,-0.0005,0.0073,-0.0092,0.1784,0
10746993,0.9999,-0.0073,0.0087,-0.0005,0.0087,-0.0036,0.1793,0
10747160,0.9999,-0.0073,0.0087,-0.0005,0.0024,0.0054,0.1864,0
10747326,0.9999,-0.0073,0.0087,-0.0005,-0.0053,-0.0155,0.1747,0
10747493,0.9999,-0.0073,0.0087,-0.0005,0.0100,-0.0016,0.1947,0
10747660,0.9999,-0.0074,0.0087,-0.0006,0.0003,-0.0110,0.1619,0
10747826,0.9999,-0.0074,0.0087,-0.0006,0.0004,-0.0111,0.1770,0
10747993,0.9999,-0.0074,0.0087,-0.0006,-0.0068,-0.0062,0.1656,0
10748160,0.9999,-0.0073,0.0087,-0.0006,0.0067,-0.0084,0.1737,0
10748326,0.9999,-0.0074,0.0087,-0.0006,0.0077,-0.0083,0.1752,0
10748493,0.9999,-0.0073,0.0086,-0.0006,-0.0054,-0.0145,0.1577,0
10748660,0.9999,-0.0074,0.0087,-0.0006,0.0018,-0.0016,0.1782,0
10748826,0.9999,-0.0074,0.0087,-0.0006,0.0067,-0.0157,0.1712,0
10748993,0.9999,-0.0074,0.0086,-0.0006,-0.0031,-0.0174,0.1639,0
10749160,0.9999,-0.0074,0.0086,-0.0006,-0.0042,-0.0049,0.1723,0
10749326,0.9999,-0.0074,0.0086,-0.0006,-0.0094,-0.0160,0.1618,0
10749493,0.9999,-0.0074,0.0086,-0.0006,-0.0094,-0.0130,0.1670,0
10749660,0.9999,-0.0074,0.0086,-0.0006,-0.0133,-0.0027,0.1640,0
10749826,0.9999,-0.0074,0.0086,-0.0006,-0.0105,0.0007,0.1645,0
10749993,0.9999,-0.0074,0.0086,-0.0006,-0.0115,-0.0133,0.1701,0
10750160,0.9999,-0.0073,0.0086,-0.0006,0.0002,-0.0110,0.1769,0
10750326,0.9999,-0.0073,0.0086,-0.0006,-0.0219,0.0021,0.1721,0
10750493,0.9999,-0.0074,0.0086,-0.0006,0.0053,-0.0058,0.1582,0
10750660,0.9999,-0.0074,0.0086,-0.0006,0.0022,-0.0020,0.1795,0
10750826,0.9999,-0.0074,0.0086,-0.0006,0.0054,-0.0075,0.1765,0
10750993,0.9999,-0.0074,0.0086,-0.0006,-0.0109,-0.0197,0.1464,0
10751160,0.9999,-0.0074,0.0086,-0.0006,-0.0018,-0.0068,0.1579,0
10751326,0.9999,-0.0073,0.0086,-0.0006,0.0037,-0.0049,0.1409,0
10751493,0.9999,-0.0073,0.0086,-0.0006,0.0093,-0.0090,0.1742,0
10751660,0.9999,-0.0074,0.0086,-0.0006,0.0104,-0.0094,0.1561,0
10751826,0.9999,-0.0074,0.0086,-0.0006,-0.0010,-0.0004,0.1488,0
10751993,0.9999,-0.0074,0.0086,-0.0006,0.0024,-0.0064,0.1885,0
10752160,0.9999,-0.0074,0.0086,-0.0006,-0.0004,0.0098,0.1565,0
10752326,0.9999,-0.0074,0.0086,-0.0006,-0.0117,-0.0027,0.1437,0
10752493,0.9999,-0.0074,0.0086,-0.0006,-0.0037,-0.0021,0.1761,0
10752660,0.9999,-0.0074,0.0086,-0.0006,-0.0059,0.0009,0.1774,0
10752826,0.9999,-0.0074,0.0086,-0.0006,-0.0024,-0.0036,0.1693,0
10752993,0.9999,-0.0074,0.0086,-0.0006,-0.0007,-0.0028,0.1766,0
10753160,0.9999,-0.0074,0.0086,-0.0006,0.0055,-0.0039,0.1768,0
10753326,0.9999,-0.0074,0.0086,-0.0006,-0.0100,-0.0058,0.1474,0
10753493,0.9999,-0.0074,0.0086,-0.0006,-0.0188,-0.0156,0.1794,0
10753660,0.9999,-0.0073,0.0086,-0.0006,-0.0022,-0.0199,0.1653,0
10753826,0.9999,-0.0073,0.0085,-0.0006,0.0060,-0.0190,0.1834,0
10753993,0.9999,-0.0073,0.0085,-0.0006,0.0008,0.0002,0.1779,0
10754160,0.9999,-0.0073,0.0086,-0.0006,-0.0019,-0.0065,0.1630,0
10754326,0.9999,-0.0073,0.0086,-0.0006,-0.0059,-0.0103,0.1701,0
10754493,0.9999,-0.0073,0.0086,-0.0006,0.0106,-0.0091,0.1649,0
10754660,0.9999,-0.0074,0.0086,-0.0006,0.0037,-0.0015,0.1582,0
10754826,0.9999,-0.0074,0.0086,-0.0006,-0.0132,-0.0035,0.1658,0
10754993,0.9999,-0.0074,0.0086,-0.0006,-0.0009,-0.0046,0.1737,0
10755160,0.9999,-0.0074,0.0086,-0.0006,0.0073,0.0009,0.1625,0
10755326,0.9999,-0.0074,0.0086,-0.0006,-0.0186,0.0212,0.1999,0
10755493,0.9999,-0.0074,0.0085,-0.0007,0.0070,-0.0092,0.1606,0
10755660,0.9999,-0.0074,0.0085,-0.0007,-0.0020,0.0027,0.1605,0
10755826,0.9999,-0.0074,0.0086,-0.0007,-0.0065,-0.0104,0.1819,0
10755993,0.9999,-0.0074,0.0086,-0.0007,-0.0137,-0.0152,0.1702,0
10756160,0.9999,-0.0074,0.0086,-0.0007,-0.0056,-0.0110,0.1603,0
10756326,0.9999,-0.0074,0.0086,-0.0006,0.0057,0.0063,0.1911,0
10756493,0.9999,-0.0074,0.0086,-0.0007,-0.0032,-0.0084,0.1697,0
10756660,0.9999,-0.0074,0.0086,-0.0007,0.0073,-0.0165,0.1775,0
10756826,0.9999,-0.0074,0.0086,-0.0007,-0.0001,-0.0096,0.1724,0
10756993,0.9999,-0.0074,0.0086,-0.0006,-0.0097,-0.0114,0.1592,0
10757160,0.9999,-0.0073,0.0086,-0.0006,-0.0095,-0.0179,0.1775,0
10757326,0.9999,-0.0073,0.0086,-0.0007,0.0017,0.0074,0.1637,0
10757493,0.9999,-0.0073,0.0086,-0.0007,0.0079,-0.0004,0.1795,0
10757660,0.9999,-0.0073,0.0086,-0.0007,0.0003,-0.0103,0.1742,0
10757826,0.9999,-0.0073,0.0086,-0.0007,-0.0002,-0.0091,0.1695,0
10757993,0.9999,-0.0073,0.0086,-0.0007,-0.0107,-0.0059,0.1820,0
10758160,0.9999,-0.0073,0.0086,-0.0007,-0.0005,-0.0143,0.1893,0
10758326,0.9999,-0.0073,0.0086,-0.0007,-0.0043,-0.0060,0.1787,0
10758493,0.9999,-0.0073,0.0086,-0.0007,-0.0134,-0.0110,0.1786,0
10758660,0.9999,-0.0073,0.0086,-0.0007,-0.0160,0.0225,0.1680,0
10758826,0.9999,-0.0073,0.0086,-0.0007,-0.0047,-0.0149,0.1639,0
10758993,0.9999,-0.0073,0.0086,-0.0007,0.0120,-0.0114,0.1804,0
10759160,0.9999,-0.0073,0.0086,-0.0007,0.0017,-0.0022,0.1508,0
10759326,0.9999,-0.0073,0.0086,-0.0007,-0.0008,0.0099,0.1592,0
10759493,0.9999,-0.0073,0.0086,-0.0007,-0.0054,-0.0081,0.1596,0
10759660,0.9999,-0.0073,0.0086,-0.0007,-0.0023,-0.0121,0.1791,0
10759826,0.9999,-0.0073,0.0086,-0.0007,0.0153,-0.0061,0.1759,0
10759993,0.9999,-0.0073,0.0086,-0.0007,0.0009,-0.0010,0.1825,0
10760160,0.9999,-0.0073,0.0086,-0.0007,-0.0061,-0.0153,0.1839,0
10760326,0.9999,-0.0073,0.0086,-0.0007,-0.0088,-0.0118,0.1753,0
10760493,0.9999,-0.0073,0.0086,-0.0007,-0.0138,-0.0117,0.1763,0
10760660,0.9999,-0.0073,0.0086,-0.0007,0.0002,-0.0185,0.1624,0
10760826,0.9999,-0.0073,0.0086,-0.0007,0.0013,-0.0103,0.1724,0
10760993,0.9999,-0.0073,0.0086,-0.0007,0.0089,-0.0087,0.1819,0
10761160,0.9999,-0.0073,0.0086,-0.0007,0.0003,-0.0088,0.1685,0
10761327,0.9999,-0.0073,0.0086,-0.0007,-0.0021,0.0007,0.1504,0
10761493,0.9999,-0.0073,0.0086,-0.0007,-0.0042,-0.0097,0.1671,0
10761660,0.9999,-0.0073,0.0086,-0.0007,-0.0012,-0.0130,0.1829,0
10761827,0.9999,-0.0073,0.0086,-0.0007,-0.0005,-0.0007,0.1704,0
10761993,0.9999,-0.0073,0.0086,-0.0007,-0.0103,0.0035,0.1941,0
10762160,0.9999,-0.0073,0.0086,-0.0006,0.0028,0.0049,0.2102,0
10762327,0.9999,-0.0073,0.0086,-0.0007,-0.0102,-0.0144,0.1750,0
10762493,0.9999,-0.0073,0.0086,-0.0007,0.0009,-0.0077,0.1950,0
10762660,0.9999,-0.0073,0.0086,-0.0007,0.0074,-0.0019,0.1685,0
10762827,0.9999,-0.0073,0.0086,-0.0007,-0.0037,-0.0040,0.1763,0
10762993,0.9999,-0.0073,0.0086,-0.0007,-0.0080,-0.0080,0.1815,0
10763160,0.9999,-0.0073,0.0086,-0.0006,0.0067,-0.0156,0.1884,0
10763327,0.9999,-0.0073,0.0086,-0.0006,0.0056,-0.0156,0.1688,0
10763493,0.9999,-0.0073,0.0086,-0.0006,0.0049,-0.0042,0.1656,0
10763660,0.9999,-0.0073,0.0086,-0.0007,-0.0131,-0.0086,0.1853,0
10763827,0.9999,-0.0073,0.0086,-0.0007,-0.0088,0.0031,0.1791,0
10763993,0.9999,-0.0073,0.0086,-0.0007,0.0002,-0.0103,0.1531,0
10764160,0.9999,-0.0073,0.0086,-0.0007,-0.0088,-0.0210,0.1717,0
