SampleTimeFine,Quat_W,Quat_X,Quat_Y,Quat_Z,FreeAcc_X,FreeAcc_Y,FreeAcc_Z,Status
11951145,0.9989,-0.0099,0.0025,0.0461,0.0188,-0.0002,-0.1168,0
11951311,0.9989,-0.0096,0.0025,0.0459,0.021,-0.0047,-0.1085,0
11951478,0.9989,-0.0093,0.0024,0.046,0.0185,-0.0164,-0.1009,0
11951645,0.9989,-0.0091,0.0023,0.0456,0.0128,-0.0137,-0.1176,0
11951811,0.9989,-0.0089,0.0022,0.0453,0.0115,-0.0073,-0.0963,0
11951978,0.9989,-0.0086,0.0022,0.0452,-0.0058,-0.0308,-0.1345,0
11952145,0.9989,-0.0084,0.0023,0.0453,0.0053,-0.0295,-0.1095,0
11952311,0.9989,-0.0082,0.0024,0.0452,0.0173,-0.0204,-0.1201,0
11952478,0.9989,-0.0079,0.0025,0.0451,0.0115,-0.0378,-0.108,0
11952645,0.9989,-0.0077,0.0025,0.0452,0.0205,-0.0364,-0.1323,0
11952811,0.9989,-0.0074,0.0026,0.0452,0.0161,-0.0525,-0.116,0
11952978,0.9989,-0.0072,0.0027,0.0452,0.0107,-0.0424,-0.0858,0
11953145,0.999,-0.007,0.0028,0.045,0.0097,-0.0559,-0.1132,0
11953311,0.999,-0.0067,0.0029,0.0451,0.0397,-0.0557,-0.0998,0
11953478,0.999,-0.0065,0.003,0.045,0.0232,-0.0523,-0.1109,0
11953645,0.999,-0.0062,0.003,0.0448,0.0291,-0.0615,-0.0976,0
11953811,0.999,-0.006,0.0031,0.0446,0.0108,-0.0567,-0.0766,0
11953978,0.999,-0.0057,0.0032,0.0445,0.0305,-0.0678,-0.0903,0
11954145,0.999,-0.0055,0.0033,0.0444,0.0321,-0.0704,-0.084,0
11954311,0.999,-0.0052,0.0034,0.0443,0.0455,-0.0799,-0.0876,0
11954478,0.999,-0.005,0.0034,0.0441,0.0372,-0.0824,-0.115,0
11954645,0.999,-0.0047,0.0035,0.044,0.0275,-0.0919,-0.1157,0
11954811,0.999,-0.0045,0.0036,0.0438,0.0329,-0.0967,-0.0913,0
11954978,0.999,-0.0042,0.0037,0.0437,0.049,-0.108,-0.1134,0
11955145,0.999,-0.004,0.0037,0.0436,0.0321,-0.1108,-0.1094,0
11955311,0.999,-0.0037,0.0038,0.0435,0.0368,-0.1138,-0.1143,0
11955478,0.999,-0.0035,0.0039,0.0433,0.0349,-0.1257,-0.0919,0
11955645,0.9991,-0.0032,0.004,0.0431,0.058,-0.1134,-0.1042,0
11955812,0.9991,-0.003,0.0041,0.043,0.0408,-0.1326,-0.0975,0
11955978,0.9991,-0.0027,0.0041,0.0428,0.0463,-0.1302,-0.0905,0
11956145,0.9991,-0.0025,0.0042,0.0427,0.0639,-0.1418,-0.0985,0
11956312,0.9991,-0.0022,0.0043,0.0426,0.0579,-0.1514,-0.1085,0
11956478,0.9991,-0.002,0.0044,0.0424,0.0625,-0.1406,-0.1092,0
11956645,0.9991,-0.0017,0.0045,0.0423,0.0604,-0.1579,-0.1103,0
11956812,0.9991,-0.0015,0.0045,0.0422,0.0619,-0.1727,-0.0977,0
11956978,0.9991,-0.0012,0.0046,0.042,0.0558,-0.1652,-0.09,0
11957145,0.9991,-0.001,0.0047,0.0419,0.0565,-0.1721,-0.0931,0
11957312,0.9991,-0.0007,0.0048,0.0418,0.0724,-0.1519,-0.1157,0
11957478,0.9991,-0.0005,0.0048,0.0417,0.0743,-0.1802,-0.1229,0
11957645,0.9991,-0.0002,0.0049,0.0415,0.0676,-0.1974,-0.094,0
11957812,0.9991,0,0.005,0.0414,0.072,-0.1868,-0.097,0
11957978,0.9991,0.0002,0.0051,0.0413,0.0776,-0.1847,-0.1041,0
11958145,0.9991,0.0005,0.0051,0.0412,0.0675,-0.2021,-0.1219,0
11958312,0.9991,0.0007,0.0052,0.0411,0.0744,-0.2173,-0.1277,0
11958478,0.9991,0.001,0.0053,0.041,0.0688,-0.2008,-0.1353,0
11958645,0.9991,0.0012,0.0054,0.0409,0.0825,-0.21,-0.1115,0
11958812,0.9992,0.0015,0.0054,0.0408,0.0688,-0.2109,-0.1029,0
11958978,0.9992,0.0017,0.0055,0.0407,0.0878,-0.2091,-0.1104,0
11959145,0.9992,0.0019,0.0056,0.0406,0.0785,-0.2175,-0.1158,0
11959312,0.9992,0.0022,0.0056,0.0405,0.0916,-0.2187,-0.1236,0
11959478,0.9992,0.0024,0.0057,0.0404,0.0854,-0.2454,-0.1213,0
11959645,0.9992,0.0027,0.0058,0.0403,0.0993,-0.2358,-0.117,0
11959812,0.9992,0.0029,0.0059,0.0402,0.0954,-0.2362,-0.0961,0
11959978,0.9992,0.0031,0.0059,0.0401,0.0863,-0.2466,-0.1036,0
11960145,0.9992,0.0034,0.006,0.0401,0.0954,-0.2434,-0.1128,0
11960312,0.9992,0.0036,0.0061,0.04,0.0902,-0.2396,-0.0867,0
11960478,0.9992,0.0039,0.0062,0.04,0.0861,-0.2529,-0.1083,0
11960645,0.9992,0.0041,0.0062,0.0399,0.0923,-0.2634,-0.1141,0
11960812,0.9992,0.0043,0.0063,0.0398,0.1043,-0.2681,-0.1234,0
11960978,0.9992,0.0046,0.0064,0.0398,0.104,-0.2643,-0.1146,0
11961145,0.9992,0.0048,0.0064,0.0397,0.1031,-0.2817,-0.1161,0
11961312,0.9992,0.005,0.0065,0.0397,0.0998,-0.277,-0.1085,0
11961478,0.9992,0.0053,0.0066,0.0396,0.0934,-0.2877,-0.1088,0
11961645,0.9992,0.0055,0.0067,0.0396,0.1051,-0.2854,-0.0949,0
11961812,0.9992,0.0057,0.0067,0.0395,0.1149,-0.2832,-0.0927,0
11961978,0.9992,0.006,0.0068,0.0395,0.1156,-0.2953,-0.1177,0
11962145,0.9992,0.0062,0.0069,0.0394,0.1157,-0.2976,-0.1019,0
11962312,0.9992,0.0064,0.0069,0.0394,0.1009,-0.3036,-0.0952,0
11962478,0.9992,0.0066,0.007,0.0394,0.1123,-0.3016,-0.1171,0
11962645,0.9992,0.0069,0.007,0.0393,0.1274,-0.3033,-0.1077,0
11962812,0.9992,0.0071,0.0071,0.0393,0.1065,-0.3255,-0.1186,0
11962978,0.9992,0.0073,0.0072,0.0393,0.1093,-0.3209,-0.1369,0
11963145,0.9992,0.0075,0.0073,0.0392,0.1154,-0.3251,-0.1285,0
11963312,0.9992,0.0077,0.0073,0.0392,0.1248,-0.3309,-0.0968,0
11963478,0.9992,0.008,0.0074,0.0392,0.1293,-0.3441,-0.0943,0
11963645,0.9992,0.0082,0.0074,0.0392,0.1162,-0.3351,-0.1187,0
11963812,0.9992,0.0084,0.0075,0.0392,0.1191,-0.3479,-0.1072,0
11963978,0.9992,0.0086,0.0076,0.0392,0.1212,-0.3334,-0.0878,0
11964145,0.9992,0.0088,0.0076,0.0392,0.1253,-0.3458,-0.119,0
11964312,0.9992,0.009,0.0077,0.0392,0.1196,-0.3515,-0.1067,0
11964478,0.9992,0.0092,0.0078,0.0392,0.1283,-0.351,-0.1054,0
11964645,0.9992,0.0094,0.0078,0.0392,0.129,-0.3479,-0.1161,0
11964812,0.9992,0.0096,0.0079,0.0392,0.1387,-0.3658,-0.1144,0
11964978,0.9992,0.0098,0.008,0.0391,0.1405,-0.3693,-0.0975,0
11965145,0.9992,0.01,0.008,0.0391,0.1426,-0.3724,-0.1073,0
11965312,0.9991,0.0102,0.0081,0.0391,0.1438,-0.3722,-0.1219,0
11965478,0.9991,0.0104,0.0081,0.0391,0.1437,-0.388,-0.123,0
11965645,0.9991,0.0106,0.0082,0.0392,0.138,-0.3684,-0.1114,0
11965812,0.9991,0.0108,0.0082,0.0392,0.1401,-0.3893,-0.1118,0
11965978,0.9991,0.011,0.0083,0.0392,0.1464,-0.3893,-0.1277,0
11966145,0.9991,0.0112,0.0083,0.0393,0.1397,-0.3923,-0.1168,0
11966312,0.9991,0.0114,0.0084,0.0395,0.1386,-0.4033,-0.1216,0
11966478,0.9991,0.0116,0.0084,0.0395,0.1468,-0.3949,-0.1265,0
11966645,0.9991,0.0117,0.0085,0.0395,0.1449,-0.4103,-0.1562,0
11966812,0.9991,0.0119,0.0086,0.0396,0.1395,-0.4022,-0.1257,0
11966978,0.9991,0.0121,0.0086,0.0396,0.1385,-0.4181,-0.097,0
11967145,0.9991,0.0123,0.0087,0.0396,0.1461,-0.416,-0.1092,0
11967312,0.9991,0.0124,0.0087,0.0398,0.1544,-0.4252,-0.1181,0
11967478,0.9991,0.0126,0.0088,0.0398,0.1431,-0.4211,-0.1141,0
11967645,0.9991,0.0128,0.0088,0.0399,0.1461,-0.4186,-0.1205,0
11967812,0.9991,0.0129,0.0089,0.0401,0.1484,-0.4266,-0.12,0
11967978,0.9991,0.0131,0.0089,0.0403,0.1543,-0.4383,-0.0972,0
11968145,0.9991,0.0132,0.009,0.0405,0.1523,-0.4321,-0.0957,0
11968312,0.999,0.0134,0.0091,0.0406,0.1533,-0.4393,-0.129,0
11968478,0.999,0.0135,0.0091,0.0408,0.1607,-0.4447,-0.1052,0
11968645,0.999,0.0137,0.0091,0.041,0.1517,-0.4365,-0.1089,0
11968812,0.999,0.0138,0.0092,0.0411,0.156,-0.4412,-0.1387,0
11968978,0.999,0.014,0.0092,0.0413,0.1452,-0.4395,-0.1182,0
11969145,0.999,0.0141,0.0093,0.0415,0.1667,-0.4563,-0.0992,0
11969312,0.999,0.0142,0.0093,0.0416,0.1704,-0.4545,-0.1264,0
11969478,0.999,0.0144,0.0094,0.0418,0.1755,-0.4606,-0.1381,0
11969645,0.999,0.0145,0.0094,0.042,0.1575,-0.4632,-0.0883,0
11969812,0.999,0.0146,0.0095,0.0421,0.1901,-0.4532,-0.1558,0
11969978,0.999,0.0148,0.0095,0.0423,0.1776,-0.4707,-0.1235,0
11970145,0.9989,0.0149,0.0095,0.0425,0.1803,-0.468,-0.0998,0
11970312,0.9989,0.015,0.0096,0.0427,0.1761,-0.4773,-0.1425,0
11970478,0.9989,0.0151,0.0096,0.0428,0.1768,-0.4727,-0.1057,0
11970645,0.9989,0.0152,0.0097,0.043,0.1788,-0.4806,-0.0892,0
11970812,0.9989,0.0154,0.0097,0.0432,0.1854,-0.4851,-0.1194,0
11970978,0.9995,-0.0098,0.0017,0.0285,-0.0085,0.0015,-0.1025,0
11971145,0.9995,-0.0098,0.0017,0.0286,-0.0082,-0.0119,-0.0762,0
11971312,0.9995,-0.0098,0.0017,0.0288,-0.0125,0.0007,-0.0987,0
11971478,0.9995,-0.0098,0.0017,0.029,-0.0174,0.0047,-0.1258,0
11971645,0.9995,-0.0098,0.0017,0.0292,-0.0178,0.0041,-0.1086,0
11971812,0.9995,-0.0098,0.0016,0.0293,-0.0175,0.0016,-0.1195,0
11971978,0.9995,-0.0098,0.0016,0.0295,0.0026,0.005,-0.1143,0
11972145,0.9995,-0.0098,0.0016,0.0297,-0.0025,0.0084,-0.0958,0
11972312,0.9995,-0.0098,0.0016,0.0298,-0.0007,-0.001,-0.086,0
11972479,0.9995,-0.0098,0.0016,0.0299,-0.0087,-0.0052,-0.1136,0
11972645,0.9995,-0.0098,0.0016,0.0301,-0.0096,-0.0019,-0.1003,0
11972812,0.9995,-0.0098,0.0016,0.0302,0.0035,0.0086,-0.0816,0
11972979,0.9995,-0.0098,0.0017,0.0304,0.0012,0.0159,-0.1306,0
11973145,0.9995,-0.0098,0.0016,0.0305,-0.0045,-0.0019,-0.0946,0
11973312,0.9995,-0.0098,0.0016,0.0307,0.0158,-0.0061,-0.1076,0
11973479,0.9995,-0.0098,0.0016,0.0308,0.0005,0.0004,-0.1265,0
11973645,0.9995,-0.0098,0.0016,0.0309,-0.0077,0.0035,-0.1073,0
11973812,0.9995,-0.0098,0.0016,0.0311,0.0006,-0.0111,-0.1412,0
11973979,0.9995,-0.0098,0.0016,0.0312,-0.0043,-0.0025,-0.1177,0
11974145,0.9995,-0.0098,0.0016,0.0313,-0.005,0.008,-0.1078,0
11974312,0.9995,-0.0098,0.0016,0.0314,-0.0186,-0.006,-0.1097,0
11974479,0.9995,-0.0098,0.0016,0.0315,-0.0015,0.0028,-0.1225,0
11974645,0.9995,-0.0098,0.0016,0.0316,-0.0022,-0.0033,-0.1064,0
11974812,0.9994,-0.0098,0.0016,0.0318,-0.0104,0.0062,-0.1008,0
11974979,0.9994,-0.0098,0.0016,0.0319,-0.0039,-0.0207,-0.0868,0
11975145,0.9994,-0.0098,0.0016,0.032,0.0007,-0.0052,-0.1108,0
11975312,0.9994,-0.0098,0.0016,0.0321,-0.0016,-0.0135,-0.0939,0
11975479,0.9994,-0.0098,0.0016,0.0322,0.0021,-0.0024,-0.1026,0
11975645,0.9994,-0.0097,0.0016,0.0323,-0.0191,0.0118,-0.1047,0
11975812,0.9994,-0.0097,0.0016,0.0324,-0.0077,0.0002,-0.1258,0
11975979,0.9994,-0.0097,0.0016,0.0325,0.0003,-0.0066,-0.1065,0
11976145,0.9994,-0.0097,0.0016,0.0326,-0.0079,-0.0012,-0.0887,0
11976312,0.9994,-0.0098,0.0016,0.0327,-0.0047,0.0039,-0.1571,0
11976479,0.9994,-0.0097,0.0016,0.0328,-0.0139,-0.0034,-0.0848,0
11976645,0.9994,-0.0097,0.0016,0.0329,-0.0054,-0.0004,-0.1204,0
11976812,0.9994,-0.0097,0.0016,0.033,0.002,-0.0037,-0.1264,0
11976979,0.9994,-0.0097,0.0017,0.0331,-0.006,0.0018,-0.0754,0
11977145,0.9994,-0.0097,0.0017,0.0332,-0.0028,-0.002,-0.1104,0
11977312,0.9994,-0.0097,0.0017,0.0333,-0.0145,0.007,-0.1264,0
11977479,0.9994,-0.0097,0.0017,0.0334,-0.0179,-0.0023,-0.0881,0
11977645,0.9994,-0.0097,0.0017,0.0335,0.0017,-0.0014,-0.0999,0
11977812,0.9994,-0.0097,0.0016,0.0335,-0.0097,-0.006,-0.1236,0
11977979,0.9994,-0.0097,0.0016,0.0336,-0.0074,0.0005,-0.0887,0
11978145,0.9994,-0.0097,0.0016,0.0337,0.008,0.0012,-0.1073,0
11978312,0.9994,-0.0097,0.0016,0.0338,0.0154,0.0045,-0.1097,0
11978479,0.9994,-0.0097,0.0017,0.0339,0.0054,0.0229,-0.0977,0
11978645,0.9994,-0.0097,0.0017,0.034,-0.0115,-0.002,-0.1052,0
11978812,0.9994,-0.0097,0.0017,0.034,-0.0022,-0.0152,-0.1123,0
11978979,0.9994,-0.0097,0.0017,0.0341,0.0039,-0.012,-0.1172,0
11979145,0.9994,-0.0097,0.0016,0.0342,-0.0022,0.0034,-0.1114,0
11979312,0.9994,-0.0097,0.0016,0.0343,0.0081,0.0002,-0.0765,0
11979479,0.9994,-0.0097,0.0016,0.0344,0.0012,0.0021,-0.1161,0
11979645,0.9994,-0.0097,0.0017,0.0344,-0.0147,-0.0049,-0.1042,0
11979812,0.9994,-0.0097,0.0017,0.0345,-0.0068,-0.0081,-0.1075,0
11979979,0.9994,-0.0097,0.0017,0.0346,-0.0195,-0.0172,-0.1118,0
11980145,0.9994,-0.0097,0.0016,0.0347,0.0017,-0.0078,-0.1056,0
11980312,0.9993,-0.0097,0.0016,0.0347,0.0102,-0.0161,-0.0935,0
11980479,0.9993,-0.0097,0.0016,0.0348,0.0116,-0.0051,-0.0962,0
11980645,0.9993,-0.0097,0.0016,0.0349,-0.0045,-0.0024,-0.0952,0
11980812,0.9993,-0.0097,0.0016,0.0349,-0.013,-0.0112,-0.1057,0
11980979,0.9993,-0.0097,0.0016,0.035,-0.0136,-0.0012,-0.0928,0
11981145,0.9993,-0.0097,0.0016,0.0351,-0.0096,0.0076,-0.1043,0
11981312,0.9993,-0.0097,0.0016,0.0351,-0.0083,-0.0109,-0.1017,0
11981479,0.9993,-0.0097,0.0016,0.0352,0.005,-0.0144,-0.1141,0
11981645,0.9993,-0.0097,0.0016,0.0353,0.0065,0.009,-0.1037,0
11981812,0.9993,-0.0097,0.0016,0.0353,0.0118,-0.0166,-0.0944,0
11981979,0.9993,-0.0097,0.0016,0.0354,-0.0013,0.0063,-0.0944,0
11982145,0.9993,-0.0097,0.0016,0.0354,-0.0218,-0.0142,-0.0874,0
11982312,0.9993,-0.0097,0.0016,0.0355,-0.0045,-0.001,-0.1019,0
11982479,0.9993,-0.0097,0.0016,0.0356,-0.0003,-0.0071,-0.1202,0
11982645,0.9993,-0.0097,0.0016,0.0356,0.0001,0.0114,-0.0825,0
11982812,0.9993,-0.0097,0.0016,0.0357,-0.0054,-0.0137,-0.0975,0
11982979,0.9993,-0.0097,0.0016,0.0357,-0.0065,-0.0098,-0.1003,0
11983145,0.9993,-0.0097,0.0016,0.0358,0.0039,-0.0147,-0.1208,0
11983312,0.9993,-0.0097,0.0016,0.0359,-0.0026,-0.0053,-0.102,0
11983479,0.9993,-0.0097,0.0016,0.0359,-0.0114,-0.0107,-0.0999,0
11983645,0.9993,-0.0097,0.0016,0.036,-0.0095,-0.0081,-0.1112,0
11983812,0.9993,-0.0097,0.0016,0.036,-0.0288,-0.0146,-0.0899,0
11983979,0.9993,-0.0097,0.0016,0.0361,0.0067,-0.0107,-0.0978,0
11984145,0.9993,-0.0096,0.0016,0.0361,-0.0035,-0.0007,-0.1123,0
11984312,0.9993,-0.0096,0.0016,0.0362,-0.0174,-0.0121,-0.1194,0
11984479,0.9993,-0.0096,0.0016,0.0362,0.0042,-0.0075,-0.1139,0
11984645,0.9993,-0.0096,0.0016,0.0363,-0.0037,-0.0123,-0.1051,0
11984812,0.9993,-0.0096,0.0016,0.0363,-0.0058,-0.0051,-0.0992,0
11984979,0.9993,-0.0096,0.0016,0.0364,-0.0034,-0.0164,-0.1189,0
11985145,0.9993,-0.0096,0.0016,0.0364,-0.0107,-0.0195,-0.0826,0
11985312,0.9993,-0.0096,0.0016,0.0365,-0.0062,-0.0045,-0.114,0
11985479,0.9993,-0.0096,0.0016,0.0365,-0.0112,-0.0061,-0.1064,0
11985645,0.9993,-0.0096,0.0016,0.0365,-0.0094,-0.0032,-0.1069,0
11985812,0.9993,-0.0096,0.0016,0.0366,-0.01,-0.0039,-0.111,0
11985979,0.9993,-0.0096,0.0016,0.0367,-0.0039,-0.0186,-0.0944,0
11986145,0.9993,-0.0097,0.0016,0.0367,0.0075,-0.0121,-0.0982,0
11986312,0.9993,-0.0097,0.0016,0.0368,-0.008,-0.0082,-0.094,0
11986479,0.9993,-0.0096,0.0016,0.0368,-0.0029,-0.0155,-0.1151,0
11986645,0.9993,-0.0096,0.0016,0.0368,-0.0123,-0.0087,-0.1166,0
11986812,0.9993,-0.0096,0.0016,0.0369,0.0002,0.0055,-0.1213,0
11986979,0.9993,-0.0096,0.0016,0.0369,-0.0029,-0.0069,-0.1024,0
11987145,0.9993,-0.0096,0.0016,0.037,0.0009,-0.0096,-0.1003,0
11987312,0.9993,-0.0096,0.0016,0.037,0.0009,-0.0087,-0.0959,0
11987479,0.9993,-0.0096,0.0016,0.037,0.0093,-0.0172,-0.1068,0
11987645,0.9993,-0.0096,0.0016,0.0371,-0.0125,-0.012,-0.0883,0
11987812,0.9993,-0.0096,0.0016,0.0371,-0.0096,-0.0126,-0.0954,0
11987979,0.9993,-0.0096,0.0016,0.0372,-0.0087,0.006,-0.1109,0
11988145,0.9993,-0.0096,0.0016,0.0372,-0.009,-0.0069,-0.1086,0
11988312,0.9993,-0.0096,0.0016,0.0372,0.0026,-0.0041,-0.1108,0
11988479,0.9993,-0.0096,0.0016,0.0373,0.0101,-0.0128,-0.0931,0
11988645,0.9993,-0.0096,0.0016,0.0373,-0.0084,-0.0103,-0.0793,0
11988812,0.9993,-0.0096,0.0016,0.0373,-0.0114,-0.0207,-0.1006,0
11988979,0.9993,-0.0096,0.0016,0.0374,-0.0176,-0.0018,-0.1057,0
11989146,0.9993,-0.0096,0.0016,0.0374,-0.0066,-0.0164,-0.0984,0
11989312,0.9993,-0.0096,0.0016,0.0374,-0.0106,-0.0155,-0.1132,0
11989479,0.9992,-0.0096,0.0016,0.0375,0.0032,-0.0111,-0.1016,0
11989646,0.9992,-0.0096,0.0016,0.0375,0.0016,-0.0017,-0.0983,0
11989812,0.9992,-0.0096,0.0016,0.0375,0.0044,-0.015,-0.093,0
11989979,0.9992,-0.0096,0.0016,0.0376,-0.0036,-0.0228,-0.1126,0
11990146,0.9992,-0.0096,0.0016,0.0376,0.0046,-0.0132,-0.104,0
11990312,0.9992,-0.0096,0.0016,0.0376,-0.013,-0.0085,-0.0946,0
11990479,0.9992,-0.0096,0.0016,0.0377,-0.0097,0.0027,-0.0975,0
11990646,0.9992,-0.0096,0.0016,0.0377,0.0061,-0.0072,-0.1,0
11990812,0.9992,-0.0096,0.0016,0.0377,-0.0011,-0.0114,-0.1063,0
11990979,0.9992,-0.0097,0.0016,0.0378,-0.0085,0.0048,-0.086,0
11991146,0.9992,-0.0098,0.0016,0.0378,-0.0079,-0.0156,-0.13,0
11991312,0.9992,-0.0098,0.0016,0.0379,-0.0183,-0.0047,-0.0954,0
11991479,0.9992,-0.0098,0.0016,0.0379,-0.0022,-0.0084,-0.0846,0
11991646,0.9992,-0.0098,0.0016,0.0379,-0.0019,-0.0131,-0.1087,0
11991812,0.9992,-0.0098,0.0016,0.038,-0.0026,-0.0077,-0.09,0
11991979,0.9992,-0.0098,0.0016,0.038,0.0014,-0.0087,-0.0996,0
11992146,0.9992,-0.0098,0.0016,0.038,0.0117,-0.0025,-0.1145,0
11992312,0.9992,-0.0098,0.0016,0.0381,0.0056,0.004,-0.0849,0
11992479,0.9992,-0.0098,0.0016,0.0381,-0.0078,-0.0072,-0.1115,0
11992646,0.9992,-0.0098,0.0016,0.0381,-0.0047,-0.0006,-0.1026,0
11992812,0.9992,-0.0098,0.0016,0.0382,-0.0107,0.0019,-0.1153,0
11992979,0.9992,-0.0098,0.0016,0.0382,-0.002,0.0075,-0.1156,0
11993146,0.9992,-0.0098,0.0016,0.0382,-0.0011,0.001,-0.1048,0
11993312,0.9992,-0.0098,0.0016,0.0383,-0.0019,0.0087,-0.1005,0
11993479,0.9992,-0.0098,0.0016,0.0383,-0.0119,-0.0086,-0.1255,0
11993646,0.9992,-0.0098,0.0016,0.0383,0.0078,-0.014,-0.1192,0
11993812,0.9992,-0.0098,0.0016,0.0384,-0.0057,-0.0049,-0.1025,0
11993979,0.9992,-0.0098,0.0016,0.0384,-0.0167,-0.0087,-0.1191,0
11994146,0.9992,-0.0098,0.0016,0.0384,-0.0085,-0.004,-0.1202,0
11994312,0.9992,-0.0098,0.0016,0.0385,-0.0034,-0.001,-0.1126,0
11994479,0.9992,-0.0098,0.0016,0.0385,-0.018,0.0022,-0.1123,0
11994646,0.9992,-0.0098,0.0016,0.0385,-0.0142,-0.0207,-0.1065,0
11994812,0.9992,-0.0098,0.0016,0.0385,-0.005,-0.0047,-0.1105,0
11994979,0.9992,-0.0098,0.0016,0.0386,0.0011,-0.0048,-0.103,0
11995146,0.9992,-0.0098,0.0016,0.0386,-0.0088,-0.0046,-0.0993,0
11995312,0.9992,-0.0098,0.0016,0.0386,-0.0104,-0.0077,-0.0898,0
11995479,0.9992,-0.0098,0.0016,0.0387,0.0093,-0.0056,-0.1167,0
11995646,0.9992,-0.0098,0.0016,0.0387,0.0055,-0.0028,-0.088,0
11995812,0.9992,-0.0098,0.0016,0.0387,-0.0008,-0.0189,-0.1125,0
11995979,0.9992,-0.0098,0.0016,0.0387,-0.0057,0.0019,-0.0895,0
11996146,0.9992,-0.0098,0.0016,0.0388,-0.0113,-0.0131,-0.1132,0
11996312,0.9992,-0.0098,0.0016,0.0388,-0.0031,0.0003,-0.0984,0
11996479,0.9992,-0.0098,0.0016,0.0388,-0.0058,-0.0027,-0.1057,0
11996646,0.9992,-0.0098,0.0016,0.0389,-0.0125,-0.0133,-0.0924,0
11996812,0.9992,-0.0098,0.0017,0.0389,0.0054,-0.0116,-0.1116,0
11996979,0.9992,-0.0098,0.0016,0.0389,-0.0006,-0.0102,-0.1042,0
11997146,0.9992,-0.0098,0.0017,0.0389,-0.0145,0.0089,-0.0961,0
11997312,0.9992,-0.0098,0.0017,0.0389,0.0014,-0.0206,-0.106,0
11997479,0.9992,-0.0098,0.0016,0.039,-0.0062,-0.0154,-0.1151,0
11997646,0.9992,-0.0098,0.0016,0.039,0.0123,0.0104,-0.0874,0
11997812,0.9992,-0.0098,0.0017,0.039,0.0117,-0.0011,-0.0874,0
11997979,0.9992,-0.0098,0.0017,0.039,0.0101,-0.0005,-0.1193,0
11998146,0.9992,-0.0098,0.0017,0.039,0,-0.0013,-0.0904,0
11998312,0.9992,-0.0098,0.0016,0.0391,0.0012,0.0023,-0.1231,0
11998479,0.9992,-0.0098,0.0016,0.0391,-0.003,-0.0028,-0.121,0
11998646,0.9992,-0.0098,0.0016,0.0391,0.0029,-0.0168,-0.0934,0
11998812,0.9992,-0.0098,0.0016,0.0391,-0.0059,-0.0062,-0.1168,0
11998979,0.9992,-0.0098,0.0016,0.0391,0.0108,0.0026,-0.092,0
11999146,0.9992,-0.0098,0.0017,0.0392,-0.0093,-0.0014,-0.1104,0
11999312,0.9992,-0.0098,0.0017,0.0392,-0.0141,0.0021,-0.1107,0
11999479,0.9992,-0.0098,0.0017,0.0392,-0.0041,-0.0017,-0.1204,0
11999646,0.9992,-0.0098,0.0016,0.0393,-0.0086,-0.0124,-0.116,0
11999812,0.9992,-0.0098,0.0016,0.0393,-0.0088,-0.0103,-0.1103,0
11999979,0.9992,-0.0098,0.0016,0.0393,0.012,-0.0194,-0.1083,0
12000146,0.9992,-0.0099,0.0016,0.0393,0.0056,-0.0101,-0.0869,0
12000312,0.9992,-0.0098,0.0016,0.0394,0.0029,-0.0017,-0.1039,0
12000479,0.9992,-0.0099,0.0016,0.0394,0.006,0.008,-0.1062,0
12000646,0.9992,-0.0099,0.0016,0.0394,-0.0104,-0.008,-0.1028,0
12000812,0.9992,-0.0099,0.0016,0.0394,-0.0025,-0.0143,-0.1144,0
12000979,0.9992,-0.0099,0.0016,0.0394,-0.0041,-0.0039,-0.0979,0
12001146,0.9992,-0.0099,0.0016,0.0394,-0.007,-0.0016,-0.1009,0
12001312,0.9992,-0.0099,0.0016,0.0395,-0.0105,-0.0013,-0.1062,0
12001479,0.9992,-0.0099,0.0016,0.0395,0.0053,0.0035,-0.0988,0
12001646,0.9992,-0.0099,0.0016,0.0395,-0.0132,-0.0092,-0.0969,0
12001812,0.9992,-0.0099,0.0016,0.0395,-0.0079,-0.0041,-0.1002,0
12001979,0.9992,-0.0099,0.0016,0.0396,-0.0023,-0.0132,-0.0946,0
12002146,0.9992,-0.0099,0.0016,0.0396,0.0001,-0.0132,-0.1005,0
12002312,0.9992,-0.0099,0.0016,0.0396,0.0042,-0.0008,-0.0853,0
12002479,0.9992,-0.0099,0.0016,0.0396,0.0037,0.0001,-0.1268,0
12002646,0.9992,-0.0099,0.0016,0.0396,-0.0122,0.0121,-0.1094,0
12002812,0.9992,-0.0099,0.0017,0.0397,-0.0137,-0.013,-0.1073,0
12002979,0.9992,-0.0099,0.0017,0.0397,-0.011,-0.0014,-0.114,0
12003146,0.9992,-0.0099,0.0017,0.0397,-0.007,-0.0152,-0.1026,0
12003312,0.9992,-0.0099,0.0017,0.0397,0.0187,0.0113,-0.0819,0
12003479,0.9992,-0.0099,0.0017,0.0397,0.022,-0.0049,-0.0988,0
12003646,0.9992,-0.0099,0.0017,0.0398,0.005,-0.0013,-0.1001,0
12003812,0.9992,-0.0099,0.0017,0.0398,0.0069,-0.0125,-0.0825,0
12003979,0.9992,-0.0099,0.0017,0.0398,-0.0152,-0.0098,-0.1001,0
12004146,0.9992,-0.0099,0.0017,0.0398,-0.0031,-0.0165,-0.1195,0
12004312,0.9992,-0.0099,0.0017,0.0398,-0.0159,-0.0057,-0.1252,0
12004479,0.9992,-0.0099,0.0017,0.0399,0.0009,-0.0004,-0.1062,0
12004646,0.9992,-0.0099,0.0017,0.0399,-0.0057,-0.0151,-0.1073,0
12004812,0.9992,-0.0099,0.0017,0.0399,0.0072,-0.0057,-0.1197,0
12004979,0.9992,-0.0099,0.0017,0.0399,0.0003,-0.0152,-0.1096,0
12005146,0.9992,-0.0099,0.0017,0.0399,-0.0056,-0.0143,-0.1018,0
12005312,0.9992,-0.0099,0.0017,0.04,0.0178,-0.0035,-0.111,0
12005479,0.9992,-0.0099,0.0017,0.04,-0.0165,-0.0191,-0.0975,0
12005646,0.9991,-0.0099,0.0017,0.04,-0.0171,-0.0055,-0.0982,0
12005813,0.9991,-0.0099,0.0017,0.04,-0.0132,-0.0005,-0.1025,0
12005979,0.9991,-0.0099,0.0017,0.04,0.0104,-0.0069,-0.0953,0
12006146,0.9991,-0.0099,0.0017,0.04,-0.0117,-0.0091,-0.098,0
12006313,0.9991,-0.0099,0.0017,0.0401,-0.0084,-0.0117,-0.1165,0
12006479,0.9991,-0.0099,0.0017,0.0401,-0.0044,-0.0094,-0.1074,0
12006646,0.9991,-0.0099,0.0017,0.0401,-0.005,0.0007,-0.0866,0
12006813,0.9991,-0.0099,0.0017,0.0401,-0.0005,0.0009,-0.0983,0
12006979,0.9991,-0.0099,0.0017,0.0401,-0.0038,-0.0095,-0.1066,0
12007146,0.9991,-0.0099,0.0017,0.0401,-0.0109,-0.0107,-0.1018,0
12007313,0.9991,-0.0099,0.0017,0.0401,0.0019,-0.0113,-0.1103,0
12007479,0.9991,-0.0099,0.0017,0.0402,-0.007,-0.0111,-0.1229,0
12007646,0.9991,-0.0099,0.0017,0.0402,-0.0053,-0.0047,-0.0975,0
12007813,0.9991,-0.0099,0.0017,0.0402,0.0028,-0.0028,-0.0874,0
12007979,0.9991,-0.0099,0.0017,0.0402,0.0056,-0.001,-0.0879,0
12008146,0.9991,-0.0099,0.0017,0.0402,0.013,0.0047,-0.0858,0
12008313,0.9991,-0.0099,0.0017,0.0402,0.0174,-0.0045,-0.0832,0
12008479,0.9991,-0.0099,0.0017,0.0403,0.0117,0.006,-0.1231,0
12008646,0.9991,-0.0099,0.0017,0.0403,-0.0026,0.0071,-0.0891,0
12008813,0.9991,-0.0099,0.0017,0.0403,-0.0091,-0.0089,-0.1056,0
12008979,0.9991,-0.0099,0.0017,0.0403,-0.0016,0.0062,-0.093,0
12009146,0.9991,-0.0099,0.0017,0.0403,0.0049,0.0065,-0.1188,0
12009313,0.9991,-0.0099,0.0017,0.0403,0.0072,0.0137,-0.1009,0
12009479,0.9991,-0.0099,0.0017,0.0403,0.0036,0.01,-0.1075,0
12009646,0.9991,-0.0099,0.0017,0.0404,-0.0014,-0.0081,-0.1252,0
12009813,0.9991,-0.0099,0.0017,0.0403,-0.0226,-0.007,-0.0856,0
12009979,0.9991,-0.0099,0.0017,0.0404,0.0042,-0.0032,-0.1072,0
12010146,0.9991,-0.0099,0.0017,0.0404,-0.0011,0.0044,-0.0983,0
12010313,0.9991,-0.0099,0.0017,0.0404,-0.0012,-0.003,-0.1236,0
12010479,0.9991,-0.0099,0.0017,0.0404,-0.0037,-0.003,-0.0889,0
12010646,0.9991,-0.0099,0.0017,0.0404,0.0035,0.0061,-0.0977,0
12010813,0.9991,-0.0099,0.0017,0.0404,0.0047,-0.0054,-0.1107,0
12010979,0.9991,-0.0098,0.0017,0.0405,-0.0111,-0.0151,-0.1079,0
12011146,0.9991,-0.0098,0.0017,0.0405,-0.0059,-0.0152,-0.1213,0
12011313,0.9991,-0.0098,0.0017,0.0405,-0.009,0.0057,-0.0916,0
12011479,0.9991,-0.0098,0.0017,0.0406,0.0084,-0.0066,-0.101,0
12011646,0.9991,-0.0098,0.0017,0.0406,0.0184,-0.0047,-0.0985,0
12011813,0.9991,-0.0098,0.0017,0.0406,0.0039,-0.0098,-0.0927,0
12011979,0.9991,-0.0098,0.0017,0.0406,-0.0117,0.0026,-0.0808,0
12012146,0.9991,-0.0098,0.0017,0.0406,-0.0058,-0.0101,-0.1182,0
12012313,0.9991,-0.0098,0.0017,0.0406,-0.0089,0.0051,-0.1202,0
12012479,0.9991,-0.0098,0.0017,0.0407,0.0117,0.0032,-0.1004,0
12012646,0.9991,-0.0098,0.0017,0.0407,0.0039,-0.0107,-0.0859,0
12012813,0.9991,-0.0098,0.0017,0.0407,-0.0049,-0.0053,-0.0966,0
12012979,0.9991,-0.0098,0.0017,0.0407,-0.011,-0.0012,-0.0842,0
12013146,0.9991,-0.0098,0.0017,0.0407,-0.0109,-0.0124,-0.1343,0
12013313,0.9991,-0.0098,0.0017,0.0407,-0.0047,-0.0106,-0.1008,0
12013479,0.9991,-0.0098,0.0017,0.0407,-0.0026,-0.007,-0.1062,0
12013646,0.9991,-0.0098,0.0017,0.0407,-0.0117,-0.0232,-0.0978,0
12013813,0.9991,-0.0098,0.0017,0.0407,-0.0044,0.0029,-0.1069,0
12013979,0.9991,-0.0098,0.0017,0.0407,0.0077,-0.0012,-0.0966,0
12014146,0.9991,-0.0098,0.0017,0.0407,-0.0001,0.0015,-0.1017,0
12014313,0.9991,-0.0098,0.0017,0.0407,0.0034,0.0102,-0.0844,0
12014479,0.9991,-0.0098,0.0017,0.0407,-0.0003,-0.0041,-0.1061,0
12014646,0.9991,-0.0098,0.0017,0.0408,-0.0011,0.002,-0.1052,0
12014813,0.9991,-0.0098,0.0017,0.0408,-0.0075,-0.0066,-0.096,0
12014979,0.9991,-0.0098,0.0017,0.0408,-0.0031,-0.0148,-0.1051,0
12015146,0.9991,-0.0098,0.0017,0.0408,-0.0147,0.0125,-0.0902,0
12015313,0.9991,-0.0098,0.0017,0.0408,-0.011,0.0099,-0.0882,0
12015479,0.9991,-0.0098,0.0017,0.0408,-0.0019,0.0062,-0.0909,0
12015646,0.9991,-0.0098,0.0017,0.0408,0.0028,-0.0033,-0.1086,0
12015813,0.9991,-0.0098,0.0017,0.0408,-0.0017,-0.018,-0.114,0
12015979,0.9991,-0.0098,0.0017,0.0409,0.0001,-0.0192,-0.1088,0
12016146,0.9991,-0.0098,0.0017,0.0409,-0.0026,-0.0008,-0.1318,0
12016313,0.9991,-0.0098,0.0016,0.0409,-0.0074,0.0096,-0.0958,0
12016479,0.9991,-0.0098,0.0016,0.0409,0.0057,0.0016,-0.0873,0
12016646,0.9991,-0.0098,0.0016,0.0409,0.0152,0.0004,-0.0925,0
12016813,0.9991,-0.0098,0.0016,0.0409,0.0123,-0.0028,-0.0961,0
12016979,0.9991,-0.0098,0.0016,0.0409,0.0083,-0.0026,-0.1141,0
12017146,0.9991,-0.0098,0.0016,0.041,-0.0022,-0.0083,-0.1086,0
12017313,0.9991,-0.0098,0.0017,0.041,-0.003,-0.0017,-0.1135,0
12017479,0.9991,-0.0098,0.0017,0.041,-0.0094,0.0078,-0.0971,0
12017646,0.9991,-0.0098,0.0017,0.041,0.0079,0.0056,-0.108,0
12017813,0.9991,-0.0098,0.0017,0.041,0.0148,-0.0001,-0.0824,0
12017979,0.9991,-0.0098,0.0017,0.041,-0.0021,-0.0157,-0.1023,0
12018146,0.9991,-0.0098,0.0017,0.041,-0.0001,-0.0134,-0.1092,0
12018313,0.9991,-0.0098,0.0017,0.041,-0.0101,0.0091,-0.11,0
12018479,0.9991,-0.0098,0.0017,0.041,-0.002,-0.0017,-0.104,0
12018646,0.9991,-0.0098,0.0017,0.041,-0.0059,0.0004,-0.1049,0
12018813,0.9991,-0.0098,0.0016,0.041,-0.0016,-0.0107,-0.1075,0
12018979,0.9991,-0.0098,0.0016,0.041,0.0086,-0.0011,-0.0922,0
12019146,0.9991,-0.0098,0.0016,0.0411,0.011,0.005,-0.1095,0
12019313,0.9991,-0.0098,0.0016,0.041,0.0149,-0.0147,-0.108,0
12019479,0.9991,-0.0098,0.0016,0.041,-0.0069,-0.0102,-0.1155,0
12019646,0.9991,-0.0098,0.0016,0.041,-0.0214,0.004,-0.1166,0
12019813,0.9991,-0.0098,0.0016,0.041,-0.0008,-0.0035,-0.1097,0
12019979,0.9991,-0.0098,0.0016,0.041,0.0062,0.0106,-0.094,0
12020146,0.9991,-0.0098,0.0016,0.0411,-0.0003,-0.0005,-0.1112,0
12020313,0.9991,-0.0098,0.0016,0.041,-0.0019,-0.0082,-0.0954,0
12020479,0.9991,-0.0098,0.0016,0.0411,-0.0105,-0.0093,-0.1211,0
12020646,0.9991,-0.0098,0.0016,0.0411,0.0017,-0.0035,-0.0993,0
12020813,0.9991,-0.0098,0.0016,0.0411,0.0022,-0.0077,-0.0899,0
12020979,0.9991,-0.0098,0.0016,0.0411,-0.0044,-0.0113,-0.1048,0
12021146,0.9991,-0.0098,0.0016,0.0411,0.0025,0.0018,-0.1035,0
12021313,0.9991,-0.0098,0.0016,0.0411,0.0057,-0.0067,-0.1065,0
12021479,0.9991,-0.0098,0.0016,0.0411,0.0015,-0.0084,-0.0789,0
12021646,0.9991,-0.0098,0.0016,0.0411,-0.0032,-0.0041,-0.1146,0
12021813,0.9991,-0.0098,0.0016,0.0411,-0.005,-0.0067,-0.1228,0
12021979,0.9991,-0.0098,0.0016,0.0411,-0.0011,-0.0134,-0.1119,0
12022146,0.9991,-0.0098,0.0016,0.0411,0.0076,-0.0033,-0.088,0
12022313,0.9991,-0.0098,0.0017,0.0411,-0.0039,-0.0041,-0.1027,0
12022480,0.9991,-0.0098,0.0017,0.0411,0.0076,-0.0104,-0.0923,0
12022646,0.9991,-0.0098,0.0017,0.0411,0.007,-0.0144,-0.0849,0
12022813,0.9991,-0.0098,0.0017,0.0412,-0.006,-0.0135,-0.0915,0
12022980,0.9991,-0.0098,0.0017,0.0412,-0.0114,-0.0115,-0.1102,0
12023146,0.9991,-0.0098,0.0017,0.0412,0.0038,-0.0105,-0.1238,0
12023313,0.9991,-0.0098,0.0017,0.0412,0.0004,-0.011,-0.1009,0
12023480,0.9991,-0.0098,0.0017,0.0412,-0.0008,0,-0.0995,0
12023646,0.9991,-0.0098,0.0017,0.0412,0.003,-0.0033,-0.1068,0
12023813,0.9991,-0.0098,0.0017,0.0412,-0.004,-0.0003,-0.0884,0
12023980,0.9991,-0.0098,0.0017,0.0412,-0.0104,-0.0096,-0.0984,0
12024146,0.9991,-0.0098,0.0017,0.0412,-0.0028,-0.0032,-0.108,0
12024313,0.9991,-0.0098,0.0017,0.0412,0.0089,0.0071,-0.098,0
12024480,0.9991,-0.0098,0.0017,0.0413,0.0063,-0.0187,-0.0944,0
12024646,0.9991,-0.0099,0.0017,0.0413,0.0075,-0.0236,-0.1168,0
12024813,0.9991,-0.0099,0.0017,0.0413,0.0067,-0.0004,-0.0789,0
12024980,0.9991,-0.0099,0.0017,0.0412,0.002,-0.0016,-0.0862,0
12025146,0.9991,-0.0099,0.0017,0.0413,0.0008,-0.0017,-0.0918,0
12025313,0.9991,-0.0099,0.0017,0.0413,-0.0121,0.0059,-0.114,0
12025480,0.9991,-0.0099,0.0017,0.0413,-0.0043,0.0044,-0.0861,0
12025646,0.9991,-0.0099,0.0017,0.0413,-0.0147,-0.0114,-0.1067,0
12025813,0.9991,-0.0099,0.0017,0.0413,0.0013,-0.0152,-0.1055,0
12025980,0.9991,-0.0099,0.0017,0.0413,0.0018,-0.0115,-0.097,0
12026146,0.9991,-0.0099,0.0017,0.0413,-0.0034,-0.0023,-0.1148,0
12026313,0.9991,-0.0099,0.0017,0.0413,-0.0196,-0.0074,-0.1087,0
12026480,0.9991,-0.0099,0.0017,0.0413,-0.0019,0.0056,-0.112,0
12026646,0.9991,-0.0099,0.0017,0.0413,-0.0031,0.0015,-0.1029,0
12026813,0.9991,-0.0099,0.0017,0.0413,-0.0014,-0.0122,-0.1032,0
12026980,0.9991,-0.0099,0.0017,0.0413,0.0108,-0.0039,-0.1031,0
12027146,0.9991,-0.0099,0.0017,0.0413,0.0038,-0.0094,-0.0959,0
12027313,0.9991,-0.0099,0.0017,0.0413,-0.0158,0.0078,-0.1085,0
12027480,0.9991,-0.0099,0.0017,0.0413,0.0014,-0.0083,-0.0776,0
12027646,0.9991,-0.0098,0.0017,0.0413,-0.0033,0.0074,-0.0943,0
12027813,0.9991,-0.0098,0.0017,0.0413,0.0141,0.0123,-0.0843,0
12027980,0.9991,-0.0098,0.0018,0.0413,0.0134,-0.0149,-0.0628,0
12028146,0.9991,-0.0098,0.0018,0.0413,0.0033,0.0057,-0.0994,0
12028313,0.9991,-0.0098,0.0018,0.0413,-0.0159,-0.0129,-0.1232,0
12028480,0.9991,-0.0098,0.0018,0.0414,-0.0198,-0.0007,-0.1243,0
12028646,0.9991,-0.0098,0.0018,0.0414,-0.0042,-0.012,-0.0969,0
12028813,0.9991,-0.0098,0.0018,0.0414,0.0141,-0.0087,-0.0822,0
12028980,0.9991,-0.0098,0.0019,0.0413,0.0168,0.002,-0.0886,0
12029146,0.9991,-0.0098,0.0019,0.0414,-0.006,-0.0019,-0.1162,0
12029313,0.9991,-0.0098,0.0019,0.0413,-0.0059,-0.0244,-0.1356,0
12029480,0.9991,-0.0098,0.0019,0.0414,-0.0423,-0.0049,-0.1271,0
12029646,0.9991,-0.0098,0.0019,0.0414,-0.0243,-0.0047,-0.1134,0
12029813,0.9991,-0.0098,0.0019,0.0414,0.0137,-0.0009,-0.1144,0
12029980,0.9991,-0.0098,0.0018,0.0414,0.0278,-0.0006,-0.0415,0
12030146,0.9991,-0.0098,0.0019,0.0414,0.0336,-0.0114,-0.0679,0
12030313,0.9991,-0.0098,0.0019,0.0414,0.011,-0.021,-0.1225,0
12030480,0.9991,-0.0099,0.0019,0.0415,-0.0235,-0.0179,-0.1078,0
12030646,0.9991,-0.0098,0.0019,0.0415,-0.0227,-0.0085,-0.1118,0
12030813,0.9991,-0.0099,0.0019,0.0415,-0.0184,-0.0083,-0.1206,0
12030980,0.9991,-0.0098,0.0019,0.0415,0.0112,-0.0029,-0.1251,0
12031146,0.9991,-0.0099,0.0018,0.0415,0.0056,0.0062,-0.1068,0
12031313,0.9991,-0.0099,0.0019,0.0415,0.0281,0.0064,-0.0916,0
12031480,0.9991,-0.0099,0.0019,0.0415,0.0049,-0.001,-0.1042,0
12031646,0.9991,-0.0099,0.0019,0.0415,-0.0013,-0.0005,-0.1244,0
12031813,0.9991,-0.0098,0.0019,0.0415,-0.0084,0.0031,-0.1172,0
12031980,0.9991,-0.0098,0.0019,0.0415,-0.0207,-0.011,-0.1108,0
12032146,0.9991,-0.0098,0.0019,0.0415,-0.0033,-0.0134,-0.1145,0
12032313,0.9991,-0.0098,0.0019,0.0416,0.0165,0.002,-0.1095,0
12032480,0.9991,-0.0098,0.0019,0.0416,0.0157,-0.0007,-0.0918,0
12032646,0.9991,-0.0098,0.0019,0.0415,0.0072,0.0132,-0.123,0
12032813,0.9991,-0.0099,0.0019,0.0416,-0.0204,0.0045,-0.1109,0
12032980,0.9991,-0.0098,0.0019,0.0416,0.005,-0.0092,-0.13,0
12033146,0.9991,-0.0098,0.0019,0.0416,-0.0085,-0.0122,-0.1277,0
12033313,0.9991,-0.0099,0.0019,0.0415,0.0187,-0.0097,-0.123,0
12033480,0.9991,-0.0099,0.0019,0.0416,0.0232,0.0036,-0.1057,0
12033646,0.9991,-0.0098,0.0019,0.0416,0.0095,-0.0025,-0.0984,0
12033813,0.9991,-0.0098,0.0019,0.0416,-0.0074,0.0128,-0.1109,0
12033980,0.9991,-0.0099,0.0019,0.0416,-0.0049,-0.0078,-0.1047,0
12034146,0.9991,-0.0099,0.0019,0.0416,-0.0128,-0.0046,-0.1292,0
12034313,0.9991,-0.0099,0.0019,0.0416,0.0141,-0.0071,-0.0908,0
12034480,0.9991,-0.0098,0.0019,0.0416,0.0218,-0.0173,-0.1025,0
12034646,0.9991,-0.0099,0.0019,0.0416,0.0096,-0.0019,-0.0925,0
12034813,0.9991,-0.0099,0.0019,0.0416,0.0022,0.0162,-0.1106,0
12034980,0.9991,-0.0099,0.0019,0.0416,0.0026,-0.0053,-0.1165,0
12035146,0.9991,-0.0099,0.0019,0.0416,-0.0275,0.0003,-0.0908,0
12035313,0.9991,-0.0099,0.0019,0.0417,-0.0121,-0.0116,-0.1139,0
12035480,0.9991,-0.0099,0.0019,0.0417,0.0066,0.0005,-0.0733,0
12035646,0.9991,-0.0099,0.0019,0.0417,0.0179,0.0117,-0.0827,0
12035813,0.9991,-0.0099,0.0019,0.0417,0.0178,0.0065,-0.1223,0
12035980,0.9991,-0.0099,0.0019,0.0417,0.0029,0.0072,-0.0859,0
12036146,0.9991,-0.0099,0.0019,0.0417,0.0033,-0.002,-0.1022,0
12036313,0.9991,-0.0099,0.0019,0.0417,-0.0009,-0.0176,-0.1087,0
12036480,0.9991,-0.0099,0.002,0.0417,-0.0034,0.0104,-0.1002,0
12036646,0.9991,-0.0099,0.002,0.0417,-0.0035,0.0112,-0.1379,0
12036813,0.9991,-0.0099,0.002,0.0417,-0.0029,0.0166,-0.0814,0
12036980,0.9991,-0.0099,0.002,0.0417,-0.0132,-0.007,-0.1061,0
12037146,0.9991,-0.0099,0.002,0.0417,0.0151,-0.0158,-0.1313,0
12037313,0.9991,-0.0099,0.002,0.0417,0.001,-0.0156,-0.1027,0
12037480,0.9991,-0.0099,0.002,0.0417,-0.007,0.0098,-0.1044,0
12037646,0.9991,-0.0099,0.002,0.0417,-0.0161,-0.0239,-0.1365,0
12037813,0.9991,-0.0099,0.002,0.0417,-0.0159,-0.0019,-0.1314,0
12037980,0.9991,-0.0098,0.002,0.0417,-0.0058,-0.0029,-0.0861,0
12038146,0.9991,-0.0099,0.0019,0.0417,0.0181,-0.001,-0.1202,0
12038313,0.9991,-0.0098,0.002,0.0417,0.0261,0.0168,-0.0864,0
12038480,0.9991,-0.0099,0.002,0.0417,0.0164,-0.0024,-0.0784,0
12038646,0.9991,-0.0099,0.002,0.0417,0.003,-0.0176,-0.1087,0
12038813,0.9991,-0.0099,0.002,0.0417,-0.0134,-0.0072,-0.1121,0
12038980,0.9991,-0.0099,0.002,0.0417,-0.0088,-0.023,-0.1088,0
12039147,0.9991,-0.0098,0.002,0.0417,0.0004,-0.0242,-0.1125,0
12039313,0.9991,-0.0099,0.002,0.0417,0.0019,-0.0197,-0.0828,0
12039480,0.9991,-0.0099,0.002,0.0417,0.0146,-0.0025,-0.1021,0
12039647,0.9991,-0.0099,0.002,0.0417,0.0048,-0.0114,-0.1084,0
12039813,0.9991,-0.0098,0.002,0.0417,-0.0089,-0.0068,-0.1246,0
12039980,0.9991,-0.0098,0.002,0.0418,-0.0204,-0.0013,-0.1271,0
12040147,0.9991,-0.0098,0.002,0.0418,-0.0134,-0.0033,-0.1073,0
12040313,0.9991,-0.0098,0.002,0.0418,0.0068,-0.0051,-0.1035,0
12040480,0.9991,-0.0098,0.002,0.0418,0.0074,-0.0187,-0.0919,0
12040647,0.9991,-0.0098,0.002,0.0418,-0.0025,-0.0108,-0.071,0
12040813,0.9991,-0.0098,0.002,0.0418,-0.0049,-0.0038,-0.1139,0
12040980,0.9991,-0.0098,0.002,0.0418,-0.0089,0.0122,-0.0926,0
12041147,0.9991,-0.0098,0.002,0.0418,-0.009,-0.013,-0.1103,0
12041313,0.9991,-0.0098,0.0019,0.0418,0.0052,-0.0205,-0.0946,0
12041480,0.9991,-0.0098,0.0019,0.0418,0.0049,-0.0206,-0.0996,0
12041647,0.9991,-0.0098,0.0019,0.0418,0.0052,-0.0168,-0.096,0
12041813,0.9991,-0.0098,0.0019,0.0418,-0.0017,-0.0065,-0.0961,0
12041980,0.9991,-0.0098,0.0019,0.0418,-0.0049,-0.0082,-0.0984,0
12042147,0.9991,-0.0098,0.0019,0.0418,0.0097,-0.0001,-0.1005,0
12042313,0.9991,-0.0099,0.0019,0.0418,-0.0106,0.0043,-0.1043,0
12042480,0.9991,-0.0099,0.0019,0.0418,0.0022,-0.0134,-0.1017,0
12042647,0.9991,-0.0099,0.0019,0.0418,0.0003,-0.0061,-0.0967,0
12042813,0.9991,-0.0099,0.0019,0.0418,0.0015,-0.0026,-0.0932,0
12042980,0.9991,-0.0099,0.0019,0.0418,0.0119,0.0008,-0.1417,0
12043147,0.9991,-0.0099,0.0019,0.0418,0.0057,0.0095,-0.0905,0
12043313,0.9991,-0.0099,0.0019,0.0418,0.0013,-0.0066,-0.106,0
12043480,0.9991,-0.0099,0.0019,0.0418,-0.0018,-0.0181,-0.1195,0
12043647,0.9991,-0.0099,0.0019,0.0418,-0.017,-0.014,-0.1049,0
12043813,0.9991,-0.0099,0.0019,0.0418,0.0114,-0.0039,-0.0822,0
12043980,0.9991,-0.0099,0.0019,0.0418,0.005,0.0006,-0.1143,0
12044147,0.9991,-0.0099,0.0019,0.0418,0.0101,-0.0063,-0.0944,0
12044313,0.9991,-0.0099,0.0019,0.0418,0.0202,0.0007,-0.0964,0
12044480,0.9991,-0.0099,0.0019,0.0418,-0.006,-0.0132,-0.1083,0
12044647,0.9991,-0.0099,0.0019,0.0418,-0.018,-0.0196,-0.1244,0
12044813,0.9991,-0.0099,0.0019,0.0418,-0.0063,-0.0096,-0.1158,0
12044980,0.9991,-0.0099,0.0019,0.0418,0.0052,-0.0184,-0.1071,0
12045147,0.9991,-0.0099,0.0019,0.0418,0.0114,-0.0056,-0.1014,0
12045313,0.9991,-0.0099,0.0019,0.0418,-0.0025,-0.0101,-0.1012,0
12045480,0.9991,-0.0099,0.0019,0.0418,-0.0209,-0.0088,-0.1297,0
12045647,0.9991,-0.0099,0.0019,0.0418,-0.0135,-0.0109,-0.1376,0
12045813,0.9991,-0.0099,0.0019,0.0418,0.0013,-0.011,-0.1111,0
12045980,0.9991,-0.0099,0.0019,0.0418,0.0027,-0.0163,-0.1053,0
12046147,0.9991,-0.0099,0.0019,0.0418,0.009,-0.0016,-0.1014,0
12046313,0.9991,-0.0099,0.0019,0.0418,0.0016,-0.0021,-0.08,0
12046480,0.9991,-0.0099,0.0019,0.0418,0.0019,-0.0033,-0.1071,0
12046647,0.9991,-0.0099,0.0019,0.0418,0.0013,0.0016,-0.0998,0
12046813,0.9991,-0.0099,0.0019,0.0418,-0.0018,-0.0005,-0.1005,0
12046980,0.9991,-0.0099,0.0019,0.0418,-0.0003,0.0052,-0.1049,0
12047147,0.9991,-0.0099,0.0019,0.0419,-0.0085,0.0167,-0.0894,0
12047313,0.9991,-0.0099,0.0019,0.0419,-0.0067,0.0016,-0.1222,0
12047480,0.9991,-0.0099,0.0019,0.0419,-0.0096,0.0046,-0.0944,0
12047647,0.9991,-0.0099,0.0019,0.0419,0.0033,-0.004,-0.1,0
12047813,0.9991,-0.0099,0.0019,0.0419,-0.004,-0.0175,-0.1181,0
12047980,0.9991,-0.0099,0.0019,0.0419,-0.0031,0.0106,-0.1192,0
12048147,0.9991,-0.0099,0.0019,0.0419,-0.0055,0.0034,-0.1063,0
12048313,0.9991,-0.0099,0.0019,0.0419,0.0028,0.01,-0.0978,0
12048480,0.9991,-0.0099,0.0019,0.0419,-0.0002,-0.0015,-0.0826,0
12048647,0.9991,-0.0099,0.0019,0.0419,-0.0173,0,-0.1057,0
12048813,0.9991,-0.0099,0.0019,0.0419,-0.012,0.0168,-0.0773,0
12048980,0.9991,-0.0099,0.0019,0.0419,-0.0031,0.0095,-0.116,0
12049147,0.9991,-0.0099,0.0019,0.0419,-0.0058,0.0035,-0.1262,0
12049313,0.9991,-0.0099,0.0019,0.0419,-0.0109,0.0152,-0.1076,0
12049480,0.9991,-0.0099,0.0019,0.042,-0.0065,0.012,-0.0976,0
12049647,0.9991,-0.0099,0.0019,0.042,-0.0148,-0.0012,-0.0887,0
12049813,0.9991,-0.0099,0.0019,0.042,-0.0075,-0.0052,-0.1338,0
12049980,0.9991,-0.0099,0.0019,0.042,-0.0082,-0.0003,-0.1012,0
12050147,0.9991,-0.0099,0.0019,0.042,0.0018,0.0033,-0.1109,0
12050313,0.9991,-0.0099,0.0019,0.042,0.0199,0.005,-0.0791,0
12050480,0.9991,-0.0099,0.0019,0.042,0.0111,0.0141,-0.1084,0
12050647,0.9991,-0.0099,0.0019,0.042,-0.0026,-0.0041,-0.0893,0
12050813,0.9991,-0.0099,0.0019,0.042,-0.0163,-0.0013,-0.1036,0
12050980,0.9991,-0.0099,0.0019,0.042,-0.0102,-0.0021,-0.1113,0
12051147,0.9991,-0.0099,0.0019,0.042,0.0016,0.0059,-0.1288,0
12051313,0.9991,-0.0099,0.0019,0.042,0.0084,0.0104,-0.0935,0
12051480,0.9991,-0.0099,0.0019,0.042,0.0054,0.0164,-0.1055,0
12051647,0.9991,-0.0099,0.0019,0.042,0.0032,0.002,-0.1058,0
12051813,0.9991,-0.0099,0.0019,0.042,-0.0054,0.0025,-0.0993,0
12051980,0.9991,-0.0099,0.0019,0.042,-0.0154,0.003,-0.095,0
12052147,0.9991,-0.0099,0.0019,0.042,0.0067,-0.0076,-0.1099,0
12052313,0.9991,-0.0099,0.0019,0.042,-0.0016,-0.0036,-0.0847,0
12052480,0.9991,-0.0099,0.0019,0.042,0.0048,0.0048,-0.0868,0
12052647,0.9991,-0.0099,0.0019,0.042,0.0074,0.0054,-0.108,0
12052813,0.9991,-0.0099,0.0019,0.042,0.0043,0.0073,-0.1215,0
12052980,0.9991,-0.0099,0.0019,0.042,-0.0027,-0.0091,-0.1026,0
12053147,0.9991,-0.0099,0.0019,0.042,-0.0123,0.0065,-0.1021,0
12053313,0.9991,-0.0099,0.0019,0.042,-0.0103,0.0033,-0.1203,0
12053480,0.9991,-0.0099,0.0019,0.042,-0.0202,0.0006,-0.1138,0
12053647,0.9991,-0.0099,0.0019,0.042,-0.0037,0.0142,-0.1009,0
12053813,0.9991,-0.0099,0.0019,0.0421,0.0098,-0.0053,-0.0858,0
12053980,0.9991,-0.0099,0.0019,0.0421,0.0016,0.0012,-0.1224,0
12054147,0.9991,-0.0099,0.0019,0.0421,0.0017,-0.0016,-0.1058,0
12054313,0.9991,-0.0099,0.0019,0.0421,-0.0022,-0.0012,-0.109,0
12054480,0.9991,-0.0099,0.0019,0.0421,-0.0045,0.0093,-0.1221,0
12054647,0.9991,-0.0099,0.0019,0.0421,-0.0004,-0.0034,-0.1071,0
12054813,0.9991,-0.0099,0.0019,0.0421,-0.0008,0.0171,-0.1091,0
12054980,0.9991,-0.0099,0.0019,0.0421,-0.0078,-0.0021,-0.1012,0
12055147,0.9991,-0.0099,0.0019,0.0421,0.0002,-0.0016,-0.1012,0
12055313,0.9991,-0.0099,0.0019,0.0421,0.0034,0.0125,-0.0957,0
12055480,0.9991,-0.0099,0.0019,0.0421,-0.0008,-0.0007,-0.1087,0
12055647,0.9991,-0.0099,0.0019,0.0421,-0.0022,0.0089,-0.1136,0
12055814,0.9991,-0.0099,0.0019,0.0422,-0.0023,0.0094,-0.0891,0
12055980,0.9991,-0.0099,0.002,0.0422,0.0054,-0.0025,-0.1065,0
12056147,0.9991,-0.0099,0.002,0.0422,-0.013,0.003,-0.1317,0
12056314,0.9991,-0.0099,0.002,0.0422,0.0088,-0.0045,-0.1237,0
12056480,0.9991,-0.0099,0.002,0.0422,-0.0105,-0.0065,-0.1085,0
12056647,0.9991,-0.0099,0.002,0.0422,0.0035,-0.0045,-0.1046,0
12056814,0.9991,-0.0099,0.002,0.0422,-0.0109,-0.0132,-0.1251,0
12056980,0.9991,-0.0099,0.002,0.0422,0.0245,-0.0086,-0.113,0
12057147,0.9991,-0.0099,0.002,0.0422,-0.0006,-0.0046,-0.1075,0
12057314,0.9991,-0.0099,0.002,0.0422,-0.0004,0.0094,-0.122,0
12057480,0.9991,-0.0099,0.002,0.0422,-0.0007,0.0064,-0.0932,0
12057647,0.9991,-0.0099,0.002,0.0422,0.0008,0.0023,-0.1133,0
12057814,0.9991,-0.0099,0.002,0.0422,0.0081,0.0027,-0.1108,0
12057980,0.9991,-0.0099,0.002,0.0422,0.0039,0.0014,-0.1072,0
12058147,0.9991,-0.0099,0.002,0.0422,0.0164,0.0102,-0.105,0
12058314,0.9991,-0.0099,0.002,0.0422,-0.002,0.0074,-0.0989,0
12058480,0.9991,-0.0099,0.002,0.0422,0.0038,0.0037,-0.1074,0
12058647,0.9991,-0.0099,0.002,0.0422,-0.0171,-0.0033,-0.105,0
12058814,0.9991,-0.0099,0.002,0.0422,-0.0193,-0.0012,-0.1114,0
12058980,0.9991,-0.01,0.002,0.0422,-0.0033,-0.0032,-0.1055,0
12059147,0.9991,-0.01,0.002,0.0422,0.0114,0.0015,-0.1214,0
12059314,0.9991,-0.0099,0.002,0.0422,-0.001,-0.0018,-0.092,0
12059480,0.9991,-0.0099,0.002,0.0422,0.0107,-0.0048,-0.0835,0
12059647,0.9991,-0.0099,0.002,0.0422,0.002,0.0052,-0.0869,0
12059814,0.9991,-0.0099,0.002,0.0422,-0.0132,0.0018,-0.1195,0
12059980,0.9991,-0.0099,0.002,0.0422,-0.013,-0.0013,-0.121,0
12060147,0.9991,-0.0099,0.002,0.0422,0.0073,0.0078,-0.0885,0
12060314,0.9991,-0.0099,0.002,0.0422,0.012,0.0032,-0.0825,0
12060480,0.9991,-0.0099,0.002,0.0422,0.0126,-0.0028,-0.0932,0
12060647,0.9991,-0.0099,0.002,0.0422,0.0091,0.0134,-0.0985,0
12060814,0.9991,-0.0099,0.002,0.0422,-0.0027,0.0066,-0.0929,0
12060980,0.9991,-0.0099,0.002,0.0422,0.0012,-0.0017,-0.1075,0
12061147,0.9991,-0.0099,0.002,0.0422,0.004,-0.0092,-0.1106,0
12061314,0.9991,-0.0099,0.002,0.0422,-0.0163,-0.0023,-0.1114,0
12061480,0.9991,-0.0099,0.002,0.0422,0.0113,-0.0035,-0.1311,0
12061647,0.9991,-0.0099,0.002,0.0422,0.009,-0.0102,-0.0885,0
12061814,0.9991,-0.0099,0.002,0.0422,0.0115,0.0105,-0.0921,0
12061980,0.9991,-0.0099,0.002,0.0422,-0.002,-0.0076,-0.1079,0
12062147,0.9991,-0.0099,0.002,0.0422,-0.0028,0.0013,-0.1037,0
12062314,0.9991,-0.01,0.002,0.0422,0.0014,0.0084,-0.1058,0
12062480,0.9991,-0.01,0.002,0.0422,-0.0005,0.0039,-0.1124,0
12062647,0.9991,-0.01,0.002,0.0422,-0.0076,-0.0086,-0.0883,0
12062814,0.9991,-0.01,0.002,0.0423,0.0071,0.0049,-0.0902,0
12062980,0.9991,-0.01,0.002,0.0423,0.0115,0.0019,-0.0999,0
12063147,0.9991,-0.01,0.002,0.0423,-0.0068,-0.0069,-0.1031,0
12063314,0.9991,-0.01,0.002,0.0423,-0.006,-0.0131,-0.0867,0
12063480,0.9991,-0.01,0.002,0.0423,-0.0197,0.0096,-0.1117,0
12063647,0.9991,-0.01,0.002,0.0423,0.0036,0.003,-0.1174,0
12063814,0.9991,-0.01,0.002,0.0423,-0.0034,-0.0103,-0.086,0
12063980,0.9991,-0.01,0.002,0.0423,0.0115,0.0017,-0.1202,0
12064147,0.9991,-0.01,0.002,0.0423,0.0043,-0.0051,-0.0863,0
12064314,0.9991,-0.01,0.002,0.0423,0.0104,-0.0213,-0.107,0
12064480,0.9991,-0.01,0.002,0.0423,0.0066,-0.0022,-0.1123,0
12064647,0.9991,-0.01,0.002,0.0423,-0.0026,-0.0026,-0.1208,0
12064814,0.9991,-0.01,0.002,0.0423,-0.0061,-0.0108,-0.1163,0
12064980,0.9991,-0.01,0.002,0.0423,0.0172,0.0026,-0.111,0
12065147,0.9991,-0.01,0.002,0.0423,0.0138,-0.0002,-0.0893,0
12065314,0.9991,-0.01,0.002,0.0423,0.0077,-0.0238,-0.1009,0
12065480,0.9991,-0.01,0.002,0.0423,0.0082,-0.0078,-0.102,0
12065647,0.9991,-0.01,0.002,0.0423,0.0004,-0.0186,-0.1089,0
12065814,0.9991,-0.0099,0.002,0.0423,0.0058,0.0084,-0.0915,0
12065980,0.9991,-0.0099,0.002,0.0423,-0.0084,-0.0123,-0.1164,0
12066147,0.9991,-0.0099,0.002,0.0423,0.0048,0.0099,-0.0876,0
12066314,0.9991,-0.0099,0.002,0.0423,-0.0038,-0.0047,-0.1167,0
12066480,0.9991,-0.0099,0.002,0.0423,-0.0025,0.0023,-0.1279,0
12066647,0.9991,-0.0099,0.002,0.0423,-0.005,0.0072,-0.1182,0
12066814,0.9991,-0.0099,0.002,0.0423,-0.0042,0.0128,-0.1239,0
12066980,0.9991,-0.0099,0.002,0.0423,-0.0078,-0.0136,-0.1089,0
12067147,0.9991,-0.0099,0.002,0.0423,0.0016,-0.0175,-0.0981,0
12067314,0.9991,-0.0099,0.002,0.0423,-0.0155,-0.0032,-0.092,0
12067480,0.9991,-0.0099,0.002,0.0423,0.0024,0.0017,-0.1006,0
12067647,0.9991,-0.0099,0.002,0.0423,-0.0143,0.002,-0.1066,0
12067814,0.9991,-0.0099,0.002,0.0423,-0.0083,-0.0114,-0.1182,0
12067980,0.9991,-0.0099,0.002,0.0423,0.01,-0.0049,-0.1034,0
12068147,0.9991,-0.0099,0.002,0.0423,0.0154,0.0009,-0.0889,0
12068314,0.9991,-0.0099,0.002,0.0423,0.0102,0.0081,-0.1223,0
12068480,0.9991,-0.0099,0.002,0.0423,0.0034,0.0041,-0.1106,0
12068647,0.9991,-0.0099,0.002,0.0424,-0.0077,-0.0009,-0.0982,0
12068814,0.9991,-0.0099,0.002,0.0424,-0.0003,-0.007,-0.0802,0
12068980,0.9991,-0.0099,0.002,0.0424,-0.0016,0.0077,-0.1201,0
12069147,0.9991,-0.0099,0.002,0.0423,-0.0115,-0.0078,-0.0817,0
12069314,0.9991,-0.0099,0.002,0.0423,0.0105,-0.0116,-0.125,0
12069480,0.9991,-0.0099,0.002,0.0423,0.02,-0.0032,-0.0965,0
12069647,0.9991,-0.0099,0.002,0.0423,-0.0014,0.0166,-0.0971,0
12069814,0.9991,-0.0099,0.002,0.0423,0.0083,-0.0014,-0.1039,0
12069980,0.9991,-0.0099,0.002,0.0423,0.0004,-0.0042,-0.1034,0
12070147,0.9991,-0.0099,0.002,0.0424,-0.0006,-0.0136,-0.0986,0
12070314,0.9991,-0.0099,0.002,0.0424,0.0051,-0.0034,-0.0968,0
12070480,0.9991,-0.0099,0.002,0.0424,-0.0006,-0.0041,-0.1062,0
12070647,0.9991,-0.0099,0.002,0.0424,0.0044,-0.0147,-0.1015,0
12070814,0.9991,-0.0099,0.002,0.0424,0.008,-0.0011,-0.0819,0
12070980,0.999,-0.0099,0.0019,0.0425,0.0073,-0.0021,-0.0992,0
12071147,0.999,-0.0099,0.0019,0.0425,-0.0008,-0.0076,-0.0978,0
12071314,0.999,-0.0099,0.0019,0.0425,0.0076,-0.0131,-0.1081,0
12071480,0.999,-0.0099,0.0019,0.0425,-0.0112,-0.0088,-0.116,0
12071647,0.999,-0.0099,0.0019,0.0425,-0.0006,0.0117,-0.0944,0
12071814,0.999,-0.0099,0.0019,0.0425,-0.0069,0.0053,-0.0907,0
12071980,0.999,-0.0099,0.0019,0.0425,-0.0151,-0.0119,-0.0964,0
12072147,0.999,-0.0099,0.0019,0.0425,0.0065,-0.0063,-0.1278,0
12072314,0.999,-0.0099,0.0019,0.0425,-0.0027,0.0087,-0.0991,0
12072481,0.999,-0.0099,0.0019,0.0425,0.0053,0.0034,-0.1054,0
12072647,0.999,-0.0099,0.0019,0.0426,-0.0072,0.0005,-0.0999,0
12072814,0.999,-0.0099,0.0019,0.0426,-0.002,0.0001,-0.1067,0
12072981,0.999,-0.0099,0.0019,0.0426,0.0009,-0.0034,-0.1267,0
12073147,0.999,-0.0099,0.0019,0.0426,0.0002,0.0161,-0.1172,0
12073314,0.999,-0.0099,0.0019,0.0426,0.0166,0.0104,-0.118,0
12073481,0.999,-0.0099,0.0019,0.0426,-0.0053,0.0041,-0.0976,0
12073647,0.999,-0.0099,0.0019,0.0426,0.0049,0.0173,-0.1054,0
12073814,0.999,-0.0099,0.0019,0.0426,0.0001,0.0136,-0.0836,0
12073981,0.999,-0.0099,0.0019,0.0426,0.0178,0.0057,-0.0852,0
12074147,0.999,-0.0099,0.0019,0.0426,0.0044,0.0101,-0.0959,0
12074314,0.999,-0.0099,0.0019,0.0426,0.0056,-0.0017,-0.1149,0
12074481,0.999,-0.01,0.0019,0.0426,0.0021,-0.0044,-0.1033,0
12074647,0.999,-0.01,0.0019,0.0426,-0.0111,-0.0065,-0.089,0
12074814,0.999,-0.01,0.0019,0.0426,-0.0075,-0.0005,-0.081,0
12074981,0.999,-0.01,0.0019,0.0426,0.0201,-0.0034,-0.0995,0
12075147,0.999,-0.01,0.0019,0.0426,0.0056,-0.002,-0.1128,0
12075314,0.999,-0.01,0.0019,0.0426,-0.0077,0.0094,-0.1266,0
12075481,0.999,-0.01,0.0019,0.0427,-0.0126,-0.0117,-0.114,0
12075647,0.999,-0.01,0.0019,0.0427,0.0017,-0.0004,-0.1199,0
12075814,0.999,-0.01,0.0019,0.0427,-0.0091,0.0064,-0.1327,0
12075981,0.999,-0.01,0.0019,0.0427,-0.0037,-0.002,-0.0915,0
12076147,0.999,-0.01,0.0019,0.0427,0.0059,-0.0065,-0.0867,0
12076314,0.999,-0.01,0.0019,0.0427,0.02,0.0114,-0.0964,0
12076481,0.999,-0.01,0.0019,0.0427,0.0038,0.0092,-0.1009,0
12076647,0.999,-0.01,0.0019,0.0427,-0.0131,0.0058,-0.0757,0
12076814,0.999,-0.01,0.0019,0.0427,-0.0156,-0.0093,-0.1234,0
12076981,0.999,-0.01,0.0019,0.0427,0.0082,0.004,-0.1107,0
12077147,0.999,-0.01,0.0019,0.0427,0.0105,0.0111,-0.1085,0
12077314,0.999,-0.01,0.0019,0.0427,0.005,0.0005,-0.0861,0
12077481,0.999,-0.01,0.0019,0.0427,-0.0125,-0.0001,-0.1087,0
12077647,0.999,-0.01,0.0019,0.0427,0.0046,-0.0014,-0.0983,0
12077814,0.999,-0.01,0.0019,0.0427,-0.0004,0.0051,-0.1158,0
12077981,0.999,-0.01,0.0019,0.0427,-0.0072,0.0031,-0.1173,0
12078147,0.999,-0.01,0.0019,0.0427,-0.0189,-0.0013,-0.1171,0
12078314,0.999,-0.01,0.0019,0.0427,-0.0013,-0.0029,-0.1187,0
12078481,0.999,-0.01,0.0019,0.0428,-0.0005,-0.0092,-0.1002,0
12078647,0.999,-0.01,0.0019,0.0428,-0.0104,-0.0091,-0.106,0
12078814,0.999,-0.01,0.0019,0.0428,0.0016,-0.0087,-0.113,0
12078981,0.999,-0.01,0.0019,0.0428,0.0113,-0.0009,-0.0838,0
12079147,0.999,-0.01,0.0019,0.0428,-0.0012,0.007,-0.1208,0
12079314,0.999,-0.01,0.0019,0.0428,0.0007,0.0018,-0.1016,0
12079481,0.999,-0.01,0.0019,0.0428,-0.0108,0.0022,-0.1022,0
12079647,0.999,-0.01,0.0019,0.0428,0.0003,-0.0022,-0.1128,0
12079814,0.999,-0.0101,0.0019,0.0428,0.002,0.0068,-0.0952,0
12079981,0.999,-0.0101,0.0019,0.0428,-0.0073,0.006,-0.1189,0
12080147,0.999,-0.0101,0.0019,0.0428,-0.0079,0.0107,-0.1241,0
12080314,0.999,-0.0101,0.0019,0.0428,-0.0074,0.0169,-0.1169,0
12080481,0.999,-0.0101,0.0019,0.0428,-0.0017,0.0062,-0.1117,0
12080647,0.999,-0.0101,0.0019,0.0428,-0.002,0.0122,-0.0872,0
12080814,0.999,-0.0101,0.0019,0.0428,-0.0052,0.0218,-0.1017,0
12080981,0.999,-0.0101,0.0019,0.0428,-0.0079,0.0032,-0.1043,0
12081147,0.999,-0.0101,0.0019,0.0428,-0.0041,0.0025,-0.1021,0
12081314,0.999,-0.0101,0.0019,0.0428,-0.0046,0.0027,-0.0766,0
12081481,0.999,-0.0101,0.0019,0.0428,-0.0032,-0.0105,-0.1085,0
12081647,0.999,-0.01,0.0019,0.0428,-0.005,0.0049,-0.0945,0
12081814,0.999,-0.01,0.0019,0.0428,-0.0004,0.0015,-0.086,0
12081981,0.999,-0.01,0.0019,0.0428,0.0096,-0.0029,-0.1479,0
12082147,0.999,-0.01,0.0019,0.0428,0.0178,0.0155,-0.0863,0
12082314,0.999,-0.01,0.0019,0.0428,-0.0049,-0.0034,-0.122,0
12082481,0.999,-0.01,0.0019,0.0428,0.0074,-0.0041,-0.1171,0
12082647,0.999,-0.01,0.0019,0.0428,-0.0088,0.0111,-0.1133,0
12082814,0.999,-0.01,0.0019,0.0429,-0.008,0.0009,-0.1058,0
12082981,0.999,-0.0101,0.0019,0.0429,0.0033,-0.0132,-0.1107,0
12083147,0.999,-0.0101,0.0019,0.0429,-0.0068,0.0118,-0.1121,0
12083314,0.999,-0.0101,0.0019,0.0429,-0.0079,0.0084,-0.1059,0
12083481,0.999,-0.0101,0.0019,0.0429,-0.019,0.0042,-0.109,0
12083647,0.999,-0.0101,0.0019,0.0429,-0.0125,0.0064,-0.0922,0
12083814,0.999,-0.0101,0.0019,0.0429,-0.0077,0.0074,-0.1238,0
12083981,0.999,-0.0101,0.0019,0.0429,-0.0121,-0.0017,-0.1303,0
12084147,0.999,-0.0101,0.0019,0.0429,0.0006,0.0005,-0.1021,0
12084314,0.999,-0.0101,0.0019,0.0429,0.0167,-0.0052,-0.1019,0
12084481,0.999,-0.0101,0.0019,0.0429,-0.0074,0.0127,-0.1111,0
12084647,0.999,-0.0101,0.0019,0.0429,-0.0113,0.016,-0.0903,0
12084814,0.999,-0.0101,0.0019,0.0429,-0.0205,0.0122,-0.0949,0
12084981,0.999,-0.0101,0.0019,0.0429,-0.0079,0.0061,-0.0948,0
12085147,0.999,-0.0101,0.0019,0.0429,0.0119,0.0116,-0.1019,0
12085314,0.999,-0.0101,0.0019,0.0429,0.0113,-0.0074,-0.1053,0
12085481,0.999,-0.0101,0.0019,0.0429,0.0052,-0.0029,-0.1035,0
12085647,0.999,-0.0101,0.0019,0.0429,0.0032,0.0014,-0.1095,0
12085814,0.999,-0.0101,0.0019,0.0429,-0.0104,0.012,-0.1226,0
12085981,0.999,-0.0101,0.0019,0.0429,-0.0164,0.0135,-0.107,0
12086147,0.999,-0.0101,0.0019,0.0429,0.0019,-0.0036,-0.1136,0
12086314,0.999,-0.0101,0.0019,0.0429,-0.0139,-0.002,-0.0914,0
12086481,0.999,-0.0101,0.0019,0.043,-0.0002,0.0101,-0.1037,0
12086647,0.999,-0.0101,0.0019,0.043,-0.0108,0.0021,-0.0961,0
12086814,0.999,-0.0101,0.0019,0.043,-0.0013,0.008,-0.0965,0
12086981,0.999,-0.0101,0.0019,0.043,-0.0042,0.0168,-0.1023,0
12087147,0.999,-0.0101,0.0019,0.043,-0.0094,0.0218,-0.1094,0
12087314,0.999,-0.0101,0.0019,0.043,-0.0114,0.0066,-0.1003,0
12087481,0.999,-0.0101,0.0019,0.043,-0.0005,0.0088,-0.1162,0
12087647,0.999,-0.0101,0.0018,0.043,0.0034,0,-0.0881,0
12087814,0.999,-0.0101,0.0018,0.043,0.0003,0.0068,-0.0993,0
12087981,0.999,-0.0101,0.0018,0.043,0.0115,0.0067,-0.1009,0
12088147,0.999,-0.0101,0.0018,0.043,0.0027,0.0062,-0.089,0
12088314,0.999,-0.0101,0.0018,0.043,-0.0029,0.0056,-0.1199,0
12088481,0.999,-0.0101,0.0018,0.043,-0.0033,0.0043,-0.1144,0
12088647,0.999,-0.0101,0.0018,0.043,-0.01,-0.0049,-0.091,0
12088814,0.999,-0.0101,0.0018,0.043,0,0.0045,-0.1043,0
12088981,0.999,-0.0101,0.0018,0.043,-0.0122,0.0001,-0.097,0
12089148,0.999,-0.0102,0.0018,0.043,0.0076,0.0048,-0.1131,0
12089314,0.999,-0.0101,0.0018,0.043,-0.0026,0.0026,-0.1156,0
12089481,0.999,-0.0101,0.0018,0.043,-0.0024,-0.006,-0.1012,0
12089648,0.999,-0.0101,0.0018,0.043,-0.0008,0.0029,-0.0981,0
12089814,0.999,-0.0101,0.0019,0.043,-0.0131,-0.0096,-0.1109,0
12089981,0.999,-0.0101,0.0019,0.043,0.0052,0.0067,-0.1009,0
12090148,0.999,-0.0101,0.0018,0.043,0.003,0.0093,-0.1312,0
12090314,0.999,-0.0101,0.0018,0.043,0.0114,-0.004,-0.1138,0
12090481,0.999,-0.0101,0.0018,0.043,0.0025,-0.0011,-0.1042,0
12090648,0.999,-0.0101,0.0018,0.043,0.0017,0,-0.1141,0
12090814,0.999,-0.0101,0.0019,0.043,-0.0015,-0.0034,-0.0961,0
12090981,0.999,-0.0101,0.0019,0.0431,-0.0135,0.0046,-0.0945,0
12091148,0.999,-0.0101,0.0019,0.0431,0.0006,-0.0011,-0.0947,0
12091314,0.999,-0.0101,0.0018,0.0431,0.0012,-0.0109,-0.1169,0
12091481,0.999,-0.0101,0.0018,0.0431,-0.0041,-0.0003,-0.0859,0
12091648,0.999,-0.0101,0.0019,0.0431,-0.0021,0.0083,-0.1092,0
12091814,0.999,-0.0101,0.0019,0.0431,0.0003,0.0023,-0.0933,0
12091981,0.999,-0.0101,0.0018,0.0431,-0.0072,-0.0023,-0.1022,0
12092148,0.999,-0.0101,0.0019,0.0431,0.0066,-0.0166,-0.1024,0
12092314,0.999,-0.0101,0.0019,0.0431,-0.0022,-0.0053,-0.1253,0
12092481,0.999,-0.0101,0.0019,0.0431,0.0075,0.0149,-0.1031,0
12092648,0.999,-0.0101,0.0019,0.0431,0.0005,0.0119,-0.0935,0
12092814,0.999,-0.0101,0.0019,0.0431,0.0083,0.0116,-0.1106,0
12092981,0.999,-0.0101,0.0019,0.0431,-0.0012,-0.0029,-0.1121,0
12093148,0.999,-0.0101,0.0019,0.0431,-0.0033,0.0041,-0.1042,0
12093314,0.999,-0.0101,0.0019,0.0431,0.0022,-0.0037,-0.0937,0
12093481,0.999,-0.0101,0.0019,0.0431,0.0048,-0.0029,-0.1014,0
12093648,0.999,-0.0101,0.0019,0.0431,0.0077,0.0042,-0.0993,0
12093814,0.999,-0.0101,0.0019,0.0431,-0.0032,0.0071,-0.1066,0
12093981,0.999,-0.0101,0.0018,0.0431,-0.012,0.0161,-0.1065,0
12094148,0.999,-0.0101,0.0018,0.0431,-0.0083,0.0003,-0.1174,0
12094314,0.999,-0.0101,0.0019,0.0431,-0.0211,0.0184,-0.0998,0
12094481,0.999,-0.0101,0.0019,0.0431,0.0063,-0.0089,-0.0941,0
12094648,0.999,-0.0101,0.0019,0.0431,0.0032,0.0095,-0.1108,0
12094814,0.999,-0.0101,0.0019,0.0431,0.0238,0.0023,-0.1057,0
12094981,0.999,-0.0101,0.0019,0.0431,0.0005,0.0144,-0.1065,0
12095148,0.999,-0.0101,0.0019,0.0432,0.0187,0.013,-0.1054,0
12095314,0.999,-0.0101,0.0019,0.0432,-0.0003,-0.0007,-0.115,0
12095481,0.999,-0.0101,0.0019,0.0432,-0.0023,-0.0056,-0.1052,0
12095648,0.999,-0.0101,0.0019,0.0432,0.0061,-0.0097,-0.11,0
12095814,0.999,-0.0101,0.0019,0.0432,-0.0095,0.0021,-0.1143,0
12095981,0.999,-0.0101,0.0019,0.0432,-0.0019,-0.0011,-0.1255,0
12096148,0.999,-0.0101,0.0019,0.0432,0.0041,0.0051,-0.1273,0
12096314,0.999,-0.0101,0.0019,0.0432,0.0042,0.0169,-0.0871,0
12096481,0.999,-0.0101,0.0019,0.0432,-0.0071,0.0004,-0.0831,0
12096648,0.999,-0.0101,0.0019,0.0432,0.0031,-0.0001,-0.0947,0
12096814,0.999,-0.0101,0.0019,0.0432,-0.0018,-0.0182,-0.0917,0
12096981,0.999,-0.0101,0.0019,0.0432,-0.0004,-0.014,-0.1275,0
12097148,0.999,-0.0101,0.0019,0.0432,-0.0166,0.012,-0.1214,0
12097314,0.999,-0.0101,0.0019,0.0432,-0.0101,0.0167,-0.1196,0
12097481,0.999,-0.0101,0.0019,0.0432,-0.0105,0.0141,-0.1103,0
12097648,0.999,-0.0101,0.0019,0.0432,-0.0083,0.0042,-0.1041,0
12097814,0.999,-0.0101,0.0019,0.0432,-0.0014,0.0045,-0.1092,0
12097981,0.999,-0.0101,0.0019,0.0432,-0.0022,0.0008,-0.1069,0
12098148,0.999,-0.0101,0.0019,0.0432,0.0001,0.0068,-0.116,0
12098314,0.999,-0.0101,0.0019,0.0432,0.0047,-0.0073,-0.0908,0
12098481,0.999,-0.0101,0.0019,0.0433,0.0033,0.0095,-0.1156,0
12098648,0.999,-0.0101,0.0019,0.0433,0.0116,-0.002,-0.0969,0
12098814,0.999,-0.0101,0.0019,0.0433,0.0109,0.0072,-0.1053,0
12098981,0.999,-0.0101,0.0019,0.0433,0.0042,-0.0058,-0.1401,0
12099148,0.999,-0.0101,0.0019,0.0433,0.0039,-0.0086,-0.0989,0
12099314,0.999,-0.0101,0.0019,0.0433,-0.0076,0.0061,-0.1089,0
12099481,0.999,-0.0101,0.0019,0.0433,-0.0069,-0.0035,-0.0941,0
12099648,0.999,-0.0101,0.0019,0.0433,-0.0012,0.0097,-0.1313,0
12099814,0.999,-0.0101,0.0019,0.0433,0.0102,-0.0085,-0.1376,0
12099981,0.999,-0.0101,0.0019,0.0433,-0.0117,0.0067,-0.0334,0
12100148,0.999,-0.0101,0.0019,0.0433,0.0063,-0.0175,-0.1108,0
12100314,0.999,-0.0101,0.0019,0.0433,0.0041,-0.0032,-0.0971,0
12100481,0.999,-0.01,0.0019,0.0433,-0.0034,0.0091,-0.0963,0
12100648,0.999,-0.01,0.0019,0.0433,-0.011,-0.0002,-0.143,0
12100814,0.999,-0.01,0.0019,0.0433,-0.0074,0.0177,-0.0996,0
12100981,0.999,-0.01,0.0019,0.0433,-0.0057,-0.0001,-0.1078,0
12101148,0.999,-0.01,0.0019,0.0433,-0.0026,0.0028,-0.1083,0
12101314,0.999,-0.01,0.0019,0.0433,-0.0139,-0.0105,-0.0939,0
12101481,0.999,-0.01,0.0019,0.0433,0,0.0009,-0.0922,0
12101648,0.999,-0.01,0.0019,0.0433,0.0098,0.0158,-0.1115,0
12101814,0.999,-0.01,0.0019,0.0433,0.0169,0.0021,-0.0872,0
12101981,0.999,-0.01,0.0019,0.0433,0.008,-0.0065,-0.0894,0
12102148,0.999,-0.01,0.0019,0.0433,-0.0006,0.0001,-0.0927,0
12102314,0.999,-0.01,0.0019,0.0433,-0.0129,-0.0044,-0.1178,0
12102481,0.999,-0.01,0.0019,0.0433,0.0066,0.0103,-0.1201,0
12102648,0.999,-0.01,0.0019,0.0433,-0.0073,0.0129,-0.1011,0
12102814,0.999,-0.01,0.0019,0.0433,0.012,0.0196,-0.1065,0
12102981,0.999,-0.01,0.0019,0.0433,0.0159,0.0133,-0.1013,0
12103148,0.999,-0.01,0.0019,0.0433,0.0147,-0.0123,-0.0701,0
12103314,0.999,-0.01,0.0019,0.0433,0.0103,-0.0111,-0.1141,0
12103481,0.999,-0.01,0.0019,0.0433,-0.0112,-0.0164,-0.1238,0
12103648,0.999,-0.01,0.0019,0.0434,-0.0093,-0.0019,-0.0907,0
12103814,0.999,-0.01,0.0019,0.0433,0.0029,0.0212,-0.1203,0
12103981,0.999,-0.01,0.0019,0.0434,0.0067,0.0182,-0.1096,0
12104148,0.999,-0.01,0.0019,0.0434,0.0185,0.0162,-0.0725,0
12104314,0.999,-0.01,0.0019,0.0434,0.0117,-0.0031,-0.0943,0
12104481,0.999,-0.01,0.0019,0.0434,0.0078,-0.0041,-0.1026,0
12104648,0.999,-0.01,0.0019,0.0434,-0.0219,0.0074,-0.1048,0
12104814,0.999,-0.01,0.0019,0.0434,-0.0189,-0.0081,-0.1187,0
12104981,0.999,-0.01,0.0019,0.0434,-0.0225,0.0146,-0.1044,0
12105148,0.999,-0.01,0.0019,0.0434,0.0059,0.0102,-0.0921,0
12105314,0.999,-0.01,0.0018,0.0434,0.0369,-0.003,-0.099,0
12105481,0.999,-0.01,0.0019,0.0434,0.0126,0.01,-0.0736,0
12105648,0.999,-0.01,0.0019,0.0434,0.0024,-0.0061,-0.1149,0
12105815,0.999,-0.01,0.0019,0.0434,-0.0171,0.0158,-0.1231,0
12105981,0.999,-0.01,0.0019,0.0434,-0.0143,-0.0053,-0.1168,0
12106148,0.999,-0.0101,0.0019,0.0434,-0.0039,0.0175,-0.1012,0
12106315,0.999,-0.0101,0.0019,0.0434,0.0229,0.0013,-0.1033,0
12106481,0.999,-0.0101,0.0019,0.0434,0.0019,0.0044,-0.0875,0
12106648,0.999,-0.0101,0.0019,0.0434,0.0129,0.0005,-0.0905,0
12106815,0.999,-0.0101,0.0019,0.0434,0.0046,-0.0127,-0.1242,0
12106981,0.999,-0.0101,0.0019,0.0434,-0.0111,-0.0112,-0.1299,0
12107148,0.999,-0.0101,0.0019,0.0434,-0.0112,-0.0035,-0.1095,0
12107315,0.999,-0.0101,0.0019,0.0434,0.0119,-0.0039,-0.1063,0
12107481,0.999,-0.0101,0.0019,0.0434,0.0123,0.0098,-0.1043,0
12107648,0.999,-0.0101,0.0019,0.0434,-0.0009,0.0096,-0.1043,0
12107815,0.999,-0.0101,0.0019,0.0434,0.0023,0.0139,-0.1046,0
12107981,0.999,-0.0101,0.0019,0.0434,-0.005,0.0081,-0.1223,0
12108148,0.999,-0.0101,0.0019,0.0434,-0.0064,0.0025,-0.1077,0
12108315,0.999,-0.0101,0.0019,0.0434,-0.0069,-0.0012,-0.1296,0
12108481,0.999,-0.0101,0.0019,0.0435,0.0094,-0.0146,-0.1034,0
12108648,0.999,-0.0101,0.0019,0.0435,0.0106,0.0071,-0.0907,0
12108815,0.999,-0.0101,0.0019,0.0435,-0.0135,0.0008,-0.1094,0
12108981,0.999,-0.0101,0.0019,0.0435,-0.0041,0.0238,-0.1021,0
12109148,0.999,-0.0101,0.0019,0.0435,-0.0151,0.002,-0.1167,0
12109315,0.999,-0.0101,0.0019,0.0435,-0.0099,0.0114,-0.1057,0
12109481,0.999,-0.0101,0.0019,0.0435,-0.0059,-0.0057,-0.1231,0
12109648,0.999,-0.0101,0.0018,0.0435,0.0074,-0.0013,-0.1057,0
12109815,0.999,-0.0101,0.0018,0.0435,0.0013,0.0048,-0.113,0
12109981,0.999,-0.0101,0.0019,0.0435,0.001,0.0137,-0.0781,0
12110148,0.999,-0.0101,0.0019,0.0435,0.0057,0.0017,-0.1193,0
12110315,0.999,-0.0101,0.0019,0.0435,0.0039,0.0119,-0.1252,0
12110481,0.999,-0.0101,0.0019,0.0435,-0.0098,-0.0144,-0.0806,0
12110648,0.999,-0.0101,0.0018,0.0435,0.0061,-0.0063,-0.119,0
12110815,0.999,-0.0101,0.0018,0.0435,0.0107,-0.0219,-0.1201,0
12110981,0.999,-0.0101,0.0018,0.0435,0.0012,-0.001,-0.0717,0
12111148,0.999,-0.0101,0.0019,0.0435,-0.0072,-0.0033,-0.1333,0
12111315,0.999,-0.0101,0.0018,0.0435,-0.0062,0.0199,-0.1014,0
12111481,0.999,-0.0101,0.0019,0.0435,-0.0128,0.0333,-0.0547,0
12111648,0.999,-0.0101,0.0019,0.0436,0.0168,0.0179,-0.14,0
12111815,0.999,-0.0101,0.0019,0.0436,0.0198,0.0119,-0.0757,0
12111981,0.999,-0.0101,0.0018,0.0436,-0.0058,-0.0188,-0.0907,0
12112148,0.999,-0.0101,0.0019,0.0436,-0.0095,0.0049,-0.1346,0
12112315,0.999,-0.0101,0.0019,0.0436,-0.0245,0.0077,-0.1171,0
12112481,0.999,-0.0101,0.0019,0.0436,-0.0221,0.0309,-0.1465,0
12112648,0.999,-0.0101,0.0018,0.0436,-0.002,0.0202,-0.1036,0
12112815,0.999,-0.0101,0.0018,0.0436,0.0204,0.0054,-0.0646,0
12112981,0.999,-0.0101,0.0018,0.0436,-0.0026,-0.0051,-0.0858,0
12113148,0.999,-0.0101,0.0018,0.0436,-0.0001,-0.0055,-0.1114,0
12113315,0.999,-0.0101,0.0019,0.0436,-0.0223,0.0145,-0.0947,0
12113481,0.999,-0.0101,0.0019,0.0436,-0.0154,0.0238,-0.1106,0
12113648,0.999,-0.0101,0.0019,0.0436,-0.0026,0.0197,-0.0983,0
12113815,0.999,-0.0101,0.0019,0.0436,0.0005,0,-0.0914,0
12113981,0.999,-0.0101,0.0019,0.0436,0.009,-0.0137,-0.1157,0
12114148,0.999,-0.0101,0.0019,0.0436,0.0014,-0.0042,-0.0974,0
12114315,0.999,-0.0101,0.0019,0.0436,0.0002,0.0064,-0.088,0
12114481,0.999,-0.0101,0.0019,0.0436,-0.0041,0.0139,-0.1333,0
12114648,0.999,-0.0101,0.0019,0.0436,-0.0033,0.0018,-0.1221,0
12114815,0.999,-0.0101,0.0019,0.0436,-0.004,0.0159,-0.0774,0
12114981,0.999,-0.0101,0.0019,0.0436,0.0143,-0.0163,-0.131,0
12115148,0.999,-0.0101,0.0019,0.0436,-0.0026,-0.006,-0.0846,0
12115315,0.999,-0.0101,0.0018,0.0436,-0.0159,0.0008,-0.0953,0
12115481,0.999,-0.0101,0.0018,0.0436,-0.0027,0.0155,-0.1113,0
12115648,0.999,-0.0101,0.0018,0.0436,-0.0185,0.0151,-0.0919,0
12115815,0.999,-0.0101,0.0018,0.0436,-0.0131,0.011,-0.1016,0
12115981,0.999,-0.0101,0.0018,0.0436,-0.0008,0.0065,-0.1247,0
12116148,0.999,-0.01,0.0018,0.0436,-0.0015,-0.0186,-0.1063,0
12116315,0.999,-0.0101,0.0018,0.0437,0.0041,-0.0071,-0.105,0
12116481,0.999,-0.01,0.0018,0.0437,-0.0154,-0.0098,-0.1036,0
12116648,0.999,-0.01,0.0018,0.0437,0.0083,0.0158,-0.0972,0
12116815,0.999,-0.01,0.0018,0.0437,-0.0076,0.0125,-0.1084,0
12116981,0.999,-0.01,0.0018,0.0437,0.0046,0.0007,-0.1223,0
12117148,0.999,-0.01,0.0018,0.0437,-0.0046,-0.0167,-0.0804,0
12117315,0.999,-0.01,0.0018,0.0436,0.0067,0.0037,-0.0871,0
12117481,0.999,-0.01,0.0018,0.0436,0.0027,0.0077,-0.0981,0
12117648,0.999,-0.01,0.0018,0.0436,-0.0139,0.013,-0.0918,0
12117815,0.999,-0.01,0.0018,0.0436,-0.0191,0.0076,-0.0828,0
12117981,0.999,-0.0101,0.0018,0.0436,-0.0162,0.0145,-0.0886,0
12118148,0.999,-0.0101,0.0018,0.0436,-0.0081,-0.0018,-0.1019,0
12118315,0.999,-0.01,0.0018,0.0437,0.0091,0.0085,-0.0992,0
12118481,0.999,-0.01,0.0018,0.0437,0.0149,-0.0085,-0.1072,0
12118648,0.999,-0.01,0.0018,0.0437,0.0036,0.0178,-0.1029,0
12118815,0.999,-0.01,0.0018,0.0437,-0.0034,0.0077,-0.1096,0
12118981,0.999,-0.01,0.0019,0.0437,0.0173,0.0037,-0.0934,0
12119148,0.999,-0.01,0.0019,0.0437,-0.0103,-0.0023,-0.1242,0
12119315,0.999,-0.01,0.0019,0.0437,-0.0076,-0.0234,-0.1087,0
12119481,0.999,-0.01,0.0019,0.0437,0.0039,-0.0049,-0.0925,0
12119648,0.999,-0.0101,0.0019,0.0437,0.0183,0.0019,-0.1046,0
12119815,0.999,-0.0101,0.0019,0.0437,0.0093,0.0042,-0.0941,0
12119981,0.999,-0.0101,0.0019,0.0437,-0.0037,0.0212,-0.1151,0
12120148,0.999,-0.0101,0.0019,0.0437,-0.0013,-0.0064,-0.0849,0
12120315,0.999,-0.0101,0.0019,0.0437,-0.0073,-0.0143,-0.1053,0
12120481,0.999,-0.0101,0.0019,0.0437,0.003,0.0003,-0.099,0
12120648,0.999,-0.0101,0.0019,0.0437,-0.0038,0.0025,-0.1145,0
12120815,0.999,-0.0101,0.0019,0.0437,0.0165,0.0307,-0.1013,0
12120981,0.999,-0.0101,0.0019,0.0437,0.0002,0.0095,-0.125,0
12121148,0.999,-0.01,0.0019,0.0437,-0.0026,-0.0089,-0.1167,0
12121315,0.999,-0.01,0.0019,0.0437,0.007,0.0055,-0.1128,0
12121481,0.999,-0.01,0.0019,0.0437,-0.0069,-0.0042,-0.0972,0
12121648,0.999,-0.01,0.0019,0.0437,-0.0017,0.0172,-0.135,0
12121815,0.999,-0.01,0.0019,0.0437,0.0114,0.0031,-0.1051,0
12121981,0.999,-0.01,0.0019,0.0437,-0.0073,0.0004,-0.117,0
12122148,0.999,-0.01,0.0019,0.0437,0.0102,0.0051,-0.0788,0
12122315,0.999,-0.01,0.0019,0.0437,0.0006,-0.0035,-0.0993,0
12122482,0.999,-0.01,0.0019,0.0437,0.0011,-0.0071,-0.1028,0
12122648,0.999,-0.01,0.0019,0.0437,-0.0027,-0.0163,-0.1196,0
12122815,0.999,-0.01,0.0019,0.0437,-0.0158,0.0111,-0.0955,0
12122982,0.999,-0.01,0.0019,0.0437,-0.022,0.0067,-0.1047,0
12123148,0.999,-0.01,0.0019,0.0437,0.0124,0.0129,-0.1146,0
12123315,0.999,-0.01,0.0019,0.0438,0.0017,0.0048,-0.1084,0
12123482,0.999,-0.01,0.0019,0.0438,0.0099,0.0016,-0.0824,0
12123648,0.999,-0.01,0.0019,0.0438,-0.0034,0.0061,-0.1047,0
12123815,0.999,-0.01,0.0019,0.0438,0.0007,0.0109,-0.1047,0
12123982,0.999,-0.01,0.0019,0.0438,-0.0015,-0.0032,-0.1173,0
12124148,0.999,-0.01,0.0019,0.0438,0.0113,-0.0012,-0.0999,0
12124315,0.999,-0.01,0.0019,0.0438,-0.0091,-0.006,-0.1121,0
12124482,0.999,-0.01,0.0019,0.0438,0.0089,0.0049,-0.0766,0
12124648,0.999,-0.01,0.0019,0.0438,0.0013,0.0038,-0.1029,0
12124815,0.999,-0.01,0.0019,0.0438,0.0009,-0.0009,-0.1141,0
12124982,0.999,-0.01,0.0019,0.0438,-0.0101,0.0044,-0.0989,0
12125148,0.999,-0.01,0.0019,0.0438,-0.0152,0.0064,-0.1096,0
12125315,0.999,-0.01,0.0019,0.0438,-0.0034,0.0033,-0.0981,0
12125482,0.999,-0.01,0.0019,0.0438,0.0174,0.0034,-0.1131,0
12125648,0.999,-0.01,0.0019,0.0438,0.0019,-0.0057,-0.1061,0
12125815,0.999,-0.01,0.0019,0.0438,0.0047,0.0043,-0.1077,0
12125982,0.999,-0.01,0.0019,0.0438,-0.0015,-0.0132,-0.1058,0
12126148,0.999,-0.01,0.0019,0.0438,0.0153,-0.0104,-0.0813,0
12126315,0.999,-0.01,0.0019,0.0438,0.0045,-0.007,-0.1144,0
12126482,0.999,-0.01,0.0019,0.0438,0.0061,0.0083,-0.0921,0
12126648,0.999,-0.01,0.0019,0.0438,0.0169,0.0056,-0.0894,0
12126815,0.999,-0.01,0.0019,0.0438,0.0052,-0.0003,-0.0958,0
12126982,0.999,-0.01,0.0019,0.0439,-0.0173,0.0028,-0.1117,0
12127148,0.999,-0.01,0.0019,0.0439,-0.0048,0.0036,-0.1092,0
12127315,0.999,-0.01,0.0019,0.0439,-0.015,0.0005,-0.1076,0
12127482,0.999,-0.01,0.0019,0.0439,-0.0122,0.015,-0.1156,0
12127648,0.999,-0.01,0.0019,0.0439,0.0058,0.0114,-0.1143,0
12127815,0.999,-0.01,0.0019,0.0439,-0.0042,0.0123,-0.087,0
12127982,0.999,-0.01,0.0019,0.0439,-0.0057,-0.0039,-0.1053,0
12128148,0.999,-0.01,0.0019,0.0439,-0.0067,0.0109,-0.0798,0
12128315,0.999,-0.0101,0.0019,0.0439,-0.0252,0.0098,-0.1058,0
12128482,0.999,-0.0101,0.0019,0.0439,-0.01,0.0065,-0.1339,0
12128648,0.999,-0.0101,0.0019,0.0439,0.0113,-0.0041,-0.1218,0
12128815,0.999,-0.0101,0.0019,0.0439,0.0062,-0.0099,-0.1026,0
12128982,0.999,-0.0101,0.0019,0.0439,-0.0012,0.0031,-0.0823,0
12129148,0.999,-0.0101,0.0019,0.0439,0.0051,0.0085,-0.0973,0
12129315,0.999,-0.0101,0.0019,0.0439,-0.0008,0.0036,-0.1029,0
12129482,0.999,-0.0101,0.0019,0.0439,-0.0078,0.0112,-0.1195,0
12129648,0.999,-0.0101,0.0019,0.0439,-0.0074,-0.0162,-0.1063,0
12129815,0.999,-0.0101,0.0019,0.0439,-0.0098,0.0009,-0.1024,0
12129982,0.999,-0.0101,0.0019,0.0439,0.0099,-0.0057,-0.0954,0
12130148,0.999,-0.01,0.0019,0.0439,0.0065,-0.0038,-0.1094,0
12130315,0.999,-0.01,0.0019,0.0439,-0.0019,0.0001,-0.1099,0
12130482,0.999,-0.01,0.0019,0.0439,0.0048,0.0103,-0.0928,0
12130648,0.999,-0.01,0.0019,0.0439,-0.006,-0.01,-0.085,0
12130815,0.999,-0.01,0.0019,0.044,-0.0148,-0.0031,-0.1108,0
12130982,0.999,-0.0101,0.0019,0.044,-0.004,-0.0071,-0.0998,0
12131148,0.999,-0.0101,0.0019,0.044,-0.0079,-0.0014,-0.1111,0
12131315,0.999,-0.0101,0.0019,0.044,0.0003,0.0077,-0.1039,0
12131482,0.999,-0.0101,0.0019,0.044,0.0125,-0.0019,-0.1055,0
12131648,0.999,-0.0101,0.0019,0.044,0.0001,0.0089,-0.1159,0
12131815,0.999,-0.0101,0.0019,0.044,-0.0049,0.0046,-0.1158,0
12131982,0.999,-0.0101,0.0018,0.044,-0.0101,0.009,-0.1149,0
12132148,0.999,-0.0101,0.0018,0.044,-0.0013,0.0082,-0.112,0
12132315,0.999,-0.0101,0.0018,0.044,0.0058,0.0018,-0.1052,0
12132482,0.999,-0.0101,0.0018,0.044,0.0104,0.0134,-0.1085,0
12132648,0.999,-0.0101,0.0019,0.044,-0.0076,0.0124,-0.0999,0
12132815,0.999,-0.0101,0.0019,0.044,-0.0109,-0.0051,-0.1168,0
12132982,0.999,-0.0101,0.0019,0.044,-0.0139,0.0005,-0.1194,0
12133148,0.999,-0.0101,0.0018,0.044,-0.005,-0.006,-0.122,0
12133315,0.999,-0.0101,0.0018,0.044,-0.0013,0.0031,-0.1017,0
12133482,0.999,-0.0101,0.0018,0.044,0.0062,-0.0035,-0.1176,0
12133648,0.999,-0.0101,0.0018,0.044,-0.0034,0.0022,-0.0972,0
12133815,0.999,-0.0101,0.0018,0.044,-0.0097,0.0009,-0.0947,0
12133982,0.999,-0.0101,0.0018,0.044,0.0001,-0.0094,-0.1002,0
12134148,0.999,-0.0101,0.0018,0.044,0.001,-0.019,-0.1401,0
12134315,0.999,-0.0101,0.0018,0.044,-0.0089,0.0019,-0.1077,0
12134482,0.999,-0.0101,0.0018,0.044,-0.0102,0.005,-0.106,0
12134648,0.999,-0.0101,0.0018,0.044,-0.0108,0.0062,-0.118,0
12134815,0.999,-0.0101,0.0018,0.044,-0.0076,0.0142,-0.1134,0
12134982,0.999,-0.0101,0.0018,0.044,-0.0021,0.0013,-0.1081,0
12135148,0.999,-0.0101,0.0018,0.044,-0.0049,-0.0072,-0.1111,0
12135315,0.999,-0.0101,0.0018,0.044,-0.0037,-0.0006,-0.0681,0
12135482,0.999,-0.0101,0.0018,0.044,-0.0089,0.0027,-0.094,0
12135648,0.999,-0.0101,0.0018,0.044,-0.0102,0.0127,-0.103,0
12135815,0.999,-0.0101,0.0018,0.0441,-0.0081,0.0082,-0.1277,0
12135982,0.999,-0.0101,0.0018,0.0441,-0.008,0.002,-0.1051,0
12136148,0.999,-0.0101,0.0018,0.044,0,-0.0039,-0.1081,0
12136315,0.999,-0.0101,0.0018,0.044,-0.0031,-0.004,-0.1209,0
12136482,0.999,-0.0101,0.0018,0.044,-0.0036,-0.0091,-0.1237,0
12136648,0.999,-0.0101,0.0018,0.0441,-0.0071,0.0049,-0.1119,0
12136815,0.999,-0.0101,0.0018,0.0441,0.0116,0.0035,-0.0955,0
12136982,0.999,-0.0101,0.0018,0.044,-0.014,0.0039,-0.1042,0
12137148,0.999,-0.0101,0.0018,0.044,-0.0028,0.0115,-0.1098,0
12137315,0.999,-0.0101,0.0018,0.044,-0.0132,0.0074,-0.1218,0
12137482,0.999,-0.0101,0.0018,0.0441,-0.0122,-0.0014,-0.1335,0
12137648,0.999,-0.0101,0.0018,0.044,-0.0107,0.0005,-0.1002,0
12137815,0.999,-0.0101,0.0018,0.044,-0.0199,0.0026,-0.1021,0
12137982,0.999,-0.0101,0.0018,0.044,-0.0013,0.005,-0.0864,0
12138148,0.999,-0.0101,0.0018,0.0441,-0.0086,-0.0003,-0.1025,0
12138315,0.999,-0.0101,0.0018,0.0441,0.0027,0.0065,-0.0948,0
12138482,0.999,-0.0101,0.0018,0.0441,-0.0174,-0.0137,-0.0946,0
12138648,0.999,-0.0101,0.0018,0.0441,-0.0073,-0.0066,-0.097,0
12138815,0.999,-0.0101,0.0018,0.0441,-0.0144,-0.0066,-0.1036,0
12138982,0.999,-0.0101,0.0018,0.0441,-0.0038,-0.0137,-0.1082,0
12139149,0.999,-0.0101,0.0018,0.0441,-0.0086,-0.0115,-0.1034,0
12139315,0.999,-0.0101,0.0018,0.0441,-0.0153,-0.0031,-0.1007,0
12139482,0.999,-0.0101,0.0018,0.0441,-0.0009,-0.0124,-0.1163,0
12139649,0.999,-0.0101,0.0018,0.0441,-0.006,-0.0058,-0.1116,0
12139815,0.999,-0.0101,0.0018,0.0441,0.0099,-0.0048,-0.0977,0
12139982,0.999,-0.0101,0.0018,0.0441,-0.0039,0.0051,-0.1071,0
12140149,0.999,-0.0101,0.0018,0.0441,-0.004,-0.0015,-0.0989,0
12140315,0.999,-0.0101,0.0018,0.0441,0.0014,-0.0175,-0.109,0
12140482,0.999,-0.0101,0.0018,0.0441,-0.0138,-0.0098,-0.1145,0
12140649,0.999,-0.0101,0.0018,0.0441,-0.0106,-0.0047,-0.123,0
12140815,0.999,-0.0101,0.0018,0.0441,-0.0006,-0.0083,-0.0983,0
12140982,0.999,-0.0101,0.0018,0.0441,-0.0011,-0.0043,-0.1027,0
12141149,0.999,-0.0101,0.0018,0.0441,0.0002,0.0008,-0.1005,0
12141315,0.999,-0.0101,0.0018,0.0441,-0.0119,-0.0038,-0.1268,0
12141482,0.999,-0.0101,0.0018,0.0441,-0.0074,-0.0112,-0.113,0
12141649,0.999,-0.0101,0.0018,0.0441,-0.0035,-0.0024,-0.1147,0
12141815,0.999,-0.0101,0.0018,0.0441,-0.0041,-0.0112,-0.0811,0
12141982,0.999,-0.0101,0.0018,0.0441,0.007,-0.0068,-0.1112,0
12142149,0.999,-0.0101,0.0018,0.0441,0.0029,0.0031,-0.0988,0
12142315,0.999,-0.0101,0.0018,0.0441,-0.0092,0.0193,-0.1307,0
12142482,0.999,-0.0101,0.0018,0.0441,-0.0161,0.0124,-0.1174,0
12142649,0.999,-0.0101,0.0018,0.0441,0.0032,-0.0032,-0.1053,0
12142815,0.999,-0.0101,0.0018,0.0441,0.0026,-0.0027,-0.1097,0
12142982,0.999,-0.0101,0.0018,0.0441,-0.0014,-0.0024,-0.1057,0
12143149,0.999,-0.0101,0.0018,0.0441,-0.0091,-0.01,-0.0941,0
12143315,0.999,-0.0101,0.0018,0.0441,0.009,0.0071,-0.0993,0
12143482,0.999,-0.0101,0.0018,0.0441,-0.0037,0.0146,-0.1082,0
12143649,0.999,-0.0101,0.0018,0.0441,-0.006,-0.0071,-0.1059,0
12143815,0.999,-0.0101,0.0018,0.0441,-0.0127,-0.0029,-0.1002,0
12143982,0.999,-0.0101,0.0018,0.0441,0.004,-0.0201,-0.1122,0
12144149,0.999,-0.0101,0.0018,0.0441,0.003,-0.0119,-0.0952,0
12144315,0.999,-0.0101,0.0018,0.0441,-0.0111,-0.003,-0.0886,0
12144482,0.999,-0.0101,0.0018,0.0441,0.0008,0.0024,-0.1067,0
12144649,0.999,-0.0101,0.0018,0.0441,-0.0028,0.002,-0.1061,0
12144815,0.999,-0.0101,0.0018,0.0442,0.0021,0.0038,-0.1023,0
12144982,0.999,-0.0101,0.0018,0.0442,0.0051,-0.0045,-0.1272,0
12145149,0.999,-0.0101,0.0018,0.0442,0.0045,-0.0048,-0.1062,0
12145315,0.999,-0.0101,0.0018,0.0442,0.003,-0.0126,-0.113,0
12145482,0.999,-0.0101,0.0018,0.0442,0.0026,0.0036,-0.1265,0
12145649,0.999,-0.0101,0.0018,0.0442,-0.0042,-0.0014,-0.1178,0
12145815,0.999,-0.0101,0.0018,0.0442,-0.003,0.004,-0.0799,0
12145982,0.999,-0.0101,0.0018,0.0442,-0.0032,-0.0095,-0.1176,0
12146149,0.999,-0.0101,0.0018,0.0442,0.0171,-0.0019,-0.0952,0
12146315,0.999,-0.0101,0.0018,0.0442,0.0015,-0.0042,-0.115,0
12146482,0.999,-0.0101,0.0018,0.0442,0.0097,-0.0128,-0.1163,0
12146649,0.999,-0.0101,0.0018,0.0442,0.008,-0.0057,-0.1064,0
12146815,0.999,-0.0101,0.0018,0.0442,0.0144,0.001,-0.0927,0
12146982,0.999,-0.01,0.0018,0.0442,0.0033,-0.0041,-0.102,0
12147149,0.999,-0.0101,0.0018,0.0442,-0.0154,-0.0111,-0.1068,0
12147315,0.999,-0.0101,0.0018,0.0442,-0.0029,-0.0082,-0.0985,0
12147482,0.999,-0.0101,0.0018,0.0442,-0.0091,-0.0068,-0.1034,0
12147649,0.999,-0.0101,0.0018,0.0442,0.011,0.0008,-0.0984,0
12147815,0.999,-0.0101,0.0018,0.0442,-0.0098,0.0055,-0.1062,0
12147982,0.999,-0.0101,0.0018,0.0442,0.0068,-0.0042,-0.1018,0
12148149,0.999,-0.0101,0.0018,0.0442,-0.0008,0.0009,-0.0989,0
12148315,0.999,-0.0101,0.0018,0.0442,-0.0092,-0.0155,-0.0964,0
12148482,0.999,-0.0101,0.0018,0.0442,0.0007,-0.0122,-0.0749,0
12148649,0.999,-0.0101,0.0018,0.0442,0.0059,-0.0055,-0.1015,0
12148815,0.999,-0.0101,0.0018,0.0442,0.0052,-0.0131,-0.1187,0
12148982,0.999,-0.0101,0.0018,0.0442,0.0038,-0.0098,-0.0872,0
12149149,0.999,-0.0101,0.0018,0.0442,0.0103,0.0115,-0.1107,0
12149315,0.999,-0.0101,0.0019,0.0442,0.0021,-0.0009,-0.0904,0
12149482,0.999,-0.0101,0.0019,0.0442,-0.0018,-0.0025,-0.0932,0
12149649,0.999,-0.0101,0.0019,0.0442,-0.0088,-0.013,-0.1009,0
12149815,0.999,-0.0101,0.0019,0.0441,0.0159,-0.0198,-0.1206,0
12149982,0.999,-0.0101,0.0018,0.0441,-0.0049,0.0032,-0.1011,0
12150149,0.999,-0.0101,0.0018,0.0442,0.004,0.0079,-0.1232,0
12150315,0.999,-0.0101,0.0018,0.0441,-0.0081,-0.0095,-0.11,0
12150482,0.999,-0.0101,0.0018,0.0441,0.0108,-0.0047,-0.1046,0
12150649,0.999,-0.0101,0.0018,0.0441,-0.0067,-0.0063,-0.1257,0
12150815,0.999,-0.0101,0.0018,0.0442,-0.006,-0.0207,-0.1132,0
12150982,0.999,-0.0101,0.0018,0.0442,-0.0233,-0.0059,-0.1141,0
12151149,0.999,-0.0101,0.0018,0.0442,0.0008,-0.0038,-0.1021,0
12151315,0.999,-0.0101,0.0018,0.0442,0.006,0.0097,-0.1033,0
12151482,0.999,-0.0101,0.0019,0.0442,0.0077,-0.0088,-0.088,0
12151649,0.999,-0.0101,0.0019,0.0442,-0.0027,-0.0023,-0.08,0
12151815,0.999,-0.0101,0.0019,0.0442,0.0039,-0.002,-0.1013,0
12151982,0.999,-0.0101,0.0019,0.0442,-0.0187,0.0007,-0.1098,0
12152149,0.999,-0.0101,0.0019,0.0442,-0.0135,-0.012,-0.1203,0
12152315,0.999,-0.0101,0.0019,0.0442,-0.0158,-0.0091,-0.106,0
12152482,0.999,-0.0101,0.0019,0.0442,0.0028,-0.0059,-0.1138,0
12152649,0.999,-0.0101,0.0018,0.0442,0.0102,-0.006,-0.0959,0
12152815,0.999,-0.0101,0.0018,0.0442,0.003,-0.0153,-0.1116,0
12152982,0.999,-0.0101,0.0018,0.0442,-0.0288,-0.0126,-0.1481,0
12153149,0.999,-0.0101,0.0018,0.0442,-0.0102,-0.0185,-0.096,0
12153315,0.999,-0.0101,0.0018,0.0442,-0.015,-0.0102,-0.1033,0
12153482,0.999,-0.0101,0.0018,0.0442,-0.0007,-0.0049,-0.1414,0
12153649,0.999,-0.0101,0.0018,0.0442,-0.0087,-0.0118,-0.0472,0
12153815,0.999,-0.0101,0.0018,0.0442,0.0274,-0.004,-0.1119,0
12153982,0.999,-0.0101,0.0018,0.0442,-0.0005,-0.0041,-0.1093,0
12154149,0.999,-0.0101,0.0018,0.0442,-0.0033,0.0151,-0.0823,0
12154315,0.999,-0.0101,0.0018,0.0442,-0.0032,-0.0042,-0.1345,0
12154482,0.999,-0.0101,0.0018,0.0442,-0.0091,-0.0072,-0.1174,0
12154649,0.999,-0.0101,0.0018,0.0442,-0.007,0.0015,-0.1073,0
12154815,0.999,-0.0101,0.0018,0.0442,0.0027,-0.019,-0.1215,0
12154982,0.999,-0.0101,0.0018,0.0442,0.0003,-0.0012,-0.0846,0
12155149,0.999,-0.0101,0.0018,0.0442,0.011,-0.0078,-0.114,0
12155315,0.999,-0.0101,0.0018,0.0442,-0.0097,-0.004,-0.0927,0
12155482,0.999,-0.0101,0.0018,0.0442,-0.0079,-0.0128,-0.1535,0
12155649,0.999,-0.01,0.0018,0.0442,-0.0118,-0.0168,-0.1096,0
12155816,0.999,-0.01,0.0018,0.0442,0.0005,-0.0164,-0.0695,0
12155982,0.999,-0.01,0.0018,0.0442,0.009,0.0021,-0.1184,0
12156149,0.999,-0.0101,0.0018,0.0442,0.0061,0.0015,-0.1003,0
12156316,0.999,-0.0101,0.0018,0.0442,0.0092,0.0235,-0.0708,0
12156482,0.999,-0.0101,0.0018,0.0442,0.0023,0.0066,-0.1124,0
12156649,0.999,-0.0101,0.0018,0.0442,-0.0111,-0.0128,-0.114,0
12156816,0.999,-0.0101,0.0018,0.0442,-0.0098,-0.013,-0.1179,0
12156982,0.999,-0.0101,0.0018,0.0442,-0.014,-0.0046,-0.1023,0
12157149,0.999,-0.0101,0.0018,0.0442,0.0162,-0.0113,-0.0884,0
12157316,0.999,-0.0101,0.0018,0.0442,0.0021,0.0093,-0.074,0
12157482,0.999,-0.0101,0.0018,0.0442,-0.0067,0.0095,-0.096,0
12157649,0.999,-0.0101,0.0018,0.0442,-0.0024,-0.0011,-0.1152,0
12157816,0.999,-0.0101,0.0018,0.0443,-0.0097,-0.015,-0.105,0
12157982,0.999,-0.0101,0.0018,0.0443,-0.0042,-0.0052,-0.0977,0
12158149,0.999,-0.0101,0.0018,0.0443,0.0183,-0.0024,-0.0941,0
12158316,0.999,-0.0101,0.0018,0.0443,0.0069,0.0084,-0.1156,0
12158482,0.999,-0.01,0.0018,0.0443,-0.008,0.0069,-0.0731,0
12158649,0.999,-0.01,0.0019,0.0443,-0.0168,0.0203,-0.1189,0
12158816,0.999,-0.01,0.0019,0.0443,-0.0165,0.0096,-0.1422,0
12158982,0.999,-0.01,0.0019,0.0443,-0.006,-0.0135,-0.1027,0
12159149,0.999,-0.01,0.0018,0.0443,0.0007,-0.0171,-0.1116,0
12159316,0.999,-0.01,0.0018,0.0443,0.0178,-0.002,-0.0982,0
12159482,0.999,-0.01,0.0019,0.0443,0.0084,0.0188,-0.0843,0
12159649,0.999,-0.01,0.0018,0.0443,0.0021,0.0112,-0.0892,0
12159816,0.999,-0.01,0.0019,0.0443,-0.0126,-0.0015,-0.1156,0
12159982,0.999,-0.01,0.0019,0.0443,-0.0013,-0.0251,-0.1043,0
12160149,0.999,-0.01,0.0018,0.0443,0.0014,-0.0222,-0.1099,0
12160316,0.999,-0.01,0.0018,0.0443,0.0094,0.0013,-0.1226,0
12160482,0.999,-0.01,0.0018,0.0443,0.0195,0.0037,-0.1011,0
12160649,0.999,-0.01,0.0018,0.0443,0.025,0.0005,-0.0764,0
12160816,0.999,-0.01,0.0018,0.0443,0.0046,0.0053,-0.0979,0
12160982,0.999,-0.01,0.0018,0.0443,-0.005,0.0004,-0.1045,0
12161149,0.999,-0.01,0.0019,0.0443,-0.0054,-0.0179,-0.1088,0
12161316,0.999,-0.01,0.0018,0.0443,-0.015,-0.0147,-0.1076,0
12161482,0.999,-0.01,0.0018,0.0443,-0.0021,-0.0079,-0.1032,0
12161649,0.999,-0.01,0.0018,0.0443,0.0026,0.005,-0.1235,0
12161816,0.999,-0.01,0.0018,0.0443,0.0011,0.0128,-0.1013,0
12161982,0.999,-0.01,0.0018,0.0443,0.0008,0.0019,-0.0957,0
12162149,0.999,-0.01,0.0018,0.0443,-0.0027,-0.0037,-0.1032,0
12162316,0.999,-0.01,0.0018,0.0443,-0.0175,-0.0229,-0.1097,0
12162482,0.999,-0.01,0.0018,0.0443,-0.0199,-0.0084,-0.1246,0
12162649,0.999,-0.01,0.0018,0.0443,0.0073,-0.0017,-0.1191,0
12162816,0.999,-0.0101,0.0018,0.0443,0.0054,0.0036,-0.1077,0
12162982,0.999,-0.0101,0.0018,0.0443,0.0132,0.0191,-0.0877,0
12163149,0.999,-0.0101,0.0019,0.0443,0.0101,0.0253,-0.1046,0
12163316,0.999,-0.0101,0.0019,0.0443,-0.002,0.0095,-0.1004,0
12163482,0.999,-0.0101,0.0019,0.0443,-0.0134,-0.0048,-0.0996,0
12163649,0.999,-0.0101,0.0019,0.0443,-0.0127,0.0002,-0.1041,0
12163816,0.999,-0.0101,0.0019,0.0443,-0.0061,0.0125,-0.1062,0
12163982,0.999,-0.0101,0.0019,0.0443,0.0134,0.0144,-0.1164,0
12164149,0.999,-0.0101,0.0019,0.0443,0.0103,0.0076,-0.0913,0
12164316,0.999,-0.01,0.0019,0.0443,0.0184,0.0064,-0.0924,0
12164482,0.999,-0.01,0.0019,0.0443,-0.0137,-0.0034,-0.1147,0
12164649,0.999,-0.01,0.0019,0.0443,-0.0128,0.0023,-0.1197,0
12164816,0.999,-0.01,0.0019,0.0443,-0.015,-0.0145,-0.1254,0
12164982,0.999,-0.01,0.0019,0.0443,-0.0011,-0.0068,-0.106,0
12165149,0.999,-0.01,0.0019,0.0443,0.0126,0.0108,-0.0826,0
12165316,0.999,-0.01,0.0018,0.0443,0.0204,0.0149,-0.0841,0
12165482,0.999,-0.01,0.0019,0.0443,0.0045,0.0093,-0.0848,0
12165649,0.999,-0.01,0.0019,0.0443,-0.007,-0.0032,-0.0991,0
12165816,0.999,-0.01,0.0019,0.0443,-0.0063,-0.0211,-0.1189,0
12165982,0.999,-0.01,0.0019,0.0443,-0.0137,-0.0278,-0.1176,0
12166149,0.999,-0.01,0.0019,0.0443,-0.0184,0.0016,-0.1132,0
12166316,0.999,-0.01,0.0019,0.0443,0.0071,-0.0019,-0.1228,0
12166482,0.999,-0.01,0.0019,0.0444,0.0175,0.0086,-0.1115,0
12166649,0.999,-0.01,0.0019,0.0443,0.0139,0.0179,-0.0953,0
12166816,0.999,-0.01,0.0019,0.0443,0.0155,-0.0023,-0.1034,0
12166982,0.999,-0.01,0.0019,0.0444,-0.0111,-0.0052,-0.1209,0
12167149,0.999,-0.01,0.0019,0.0444,0.0049,-0.0164,-0.1119,0
12167316,0.999,-0.01,0.0019,0.0444,-0.0122,-0.0162,-0.1061,0
12167482,0.999,-0.01,0.0019,0.0444,-0.0012,-0.0012,-0.08,0
12167649,0.999,-0.01,0.0019,0.0444,0.0256,0.0062,-0.1,0
12167816,0.999,-0.01,0.0019,0.0444,0.022,-0.0082,-0.0766,0
12167982,0.999,-0.01,0.0019,0.0444,0.0011,0.012,-0.0957,0
12168149,0.999,-0.01,0.0019,0.0444,-0.0025,-0.0038,-0.1343,0
12168316,0.999,-0.01,0.0019,0.0444,-0.0255,-0.0172,-0.1171,0
12168482,0.999,-0.01,0.0019,0.0444,-0.0009,0.0013,-0.1099,0
12168649,0.999,-0.01,0.0019,0.0444,0.0149,0.0149,-0.0776,0
12168816,0.999,-0.01,0.0019,0.0444,0.023,-0.0067,-0.08,0
12168982,0.999,-0.01,0.0019,0.0444,0.0052,0.0191,-0.0969,0
12169149,0.999,-0.01,0.0019,0.0444,-0.0054,-0.0003,-0.0953,0
12169316,0.999,-0.01,0.0019,0.0444,-0.0132,-0.0108,-0.1071,0
12169482,0.999,-0.01,0.0019,0.0444,-0.0124,-0.014,-0.1184,0
12169649,0.999,-0.01,0.0019,0.0444,0.0111,-0.0037,-0.1051,0
12169816,0.999,-0.01,0.0019,0.0444,0.029,0.0036,-0.0944,0
12169982,0.999,-0.01,0.0019,0.0444,0.0229,0.0027,-0.0893,0
12170149,0.999,-0.01,0.0019,0.0444,0.0141,0.0098,-0.104,0
12170316,0.999,-0.01,0.0019,0.0444,-0.0077,-0.0033,-0.0894,0
12170482,0.999,-0.01,0.0019,0.0444,-0.0084,-0.0059,-0.1196,0
12170649,0.999,-0.01,0.0019,0.0444,-0.0017,-0.0039,-0.126,0
12170816,0.999,-0.01,0.0019,0.0444,0.0062,-0.0159,-0.096,0
12170982,0.999,-0.0101,0.0019,0.0445,0.0056,0.0014,-0.0984,0
12171149,0.999,-0.0101,0.0019,0.0445,0.0168,0.0175,-0.0838,0
12171316,0.999,-0.0101,0.0019,0.0445,0.0155,0.0166,-0.0897,0
12171482,0.999,-0.0101,0.0019,0.0445,0.0063,0.0076,-0.1043,0
12171649,0.999,-0.0101,0.0019,0.0445,-0.0163,0.0079,-0.1141,0
12171816,0.999,-0.0101,0.0019,0.0445,-0.0129,0.0026,-0.1188,0
12171982,0.999,-0.0101,0.0019,0.0445,-0.0093,0.0094,-0.1064,0
12172149,0.999,-0.0101,0.0019,0.0445,0.0004,0.0154,-0.1097,0
12172316,0.999,-0.0101,0.0019,0.0445,0.018,0.0208,-0.0794,0
12172483,0.999,-0.0101,0.0019,0.0445,0.024,0.0008,-0.0955,0
12172649,0.999,-0.0101,0.0019,0.0445,0.0061,-0.0054,-0.098,0
12172816,0.999,-0.0101,0.0019,0.0445,-0.0035,-0.0054,-0.1191,0
12172983,0.999,-0.0101,0.0019,0.0445,-0.0136,-0.0129,-0.1302,0
12173149,0.999,-0.0101,0.0019,0.0445,-0.0042,-0.0095,-0.11,0
12173316,0.999,-0.0101,0.0019,0.0445,0.006,-0.0012,-0.1131,0
12173483,0.999,-0.0101,0.0019,0.0445,0.0024,0.0114,-0.0982,0
12173649,0.999,-0.0101,0.0019,0.0445,0.0241,0.0042,-0.0919,0
12173816,0.999,-0.0101,0.0019,0.0445,0.0011,0.0014,-0.0894,0
12173983,0.999,-0.0101,0.0019,0.0445,-0.0024,-0.0082,-0.1127,0
12174149,0.999,-0.0101,0.0019,0.0445,-0.0113,-0.0156,-0.1172,0
12174316,0.999,-0.01,0.0019,0.0445,-0.0062,-0.0206,-0.1375,0
12174483,0.999,-0.01,0.0019,0.0445,-0.0002,0.0068,-0.0818,0
12174649,0.999,-0.01,0.0019,0.0445,0.0052,0.0019,-0.1036,0
12174816,0.999,-0.01,0.0019,0.0445,0.0205,0.0082,-0.1031,0
12174983,0.999,-0.01,0.0019,0.0445,0.0021,0.0011,-0.0986,0
12175149,0.999,-0.01,0.0019,0.0445,0.0015,-0.0053,-0.1015,0
12175316,0.999,-0.01,0.0019,0.0445,-0.0044,-0.0106,-0.1256,0
12175483,0.999,-0.01,0.0019,0.0445,-0.0003,-0.0247,-0.1237,0
12175649,0.999,-0.0101,0.0019,0.0445,0.0109,0.0058,-0.1003,0
12175816,0.999,-0.0101,0.0019,0.0445,0.0098,0.0036,-0.0992,0
12175983,0.999,-0.01,0.0019,0.0445,0.0116,-0.0059,-0.0997,0
12176149,0.999,-0.01,0.0019,0.0445,0.0043,0.0058,-0.1138,0
12176316,0.999,-0.01,0.0019,0.0445,-0.0008,-0.0044,-0.1288,0
12176483,0.999,-0.01,0.0019,0.0445,-0.0097,-0.0159,-0.1166,0
12176649,0.999,-0.01,0.0019,0.0445,-0.0098,-0.0169,-0.1116,0
12176816,0.999,-0.01,0.0019,0.0445,0.0074,-0.0009,-0.0936,0
12176983,0.999,-0.01,0.0019,0.0445,0.0138,0.0078,-0.0966,0
12177149,0.999,-0.01,0.0019,0.0445,0.0293,0.0084,-0.0791,0
12177316,0.999,-0.01,0.0019,0.0445,0.0008,-0.0041,-0.1012,0
12177483,0.999,-0.01,0.0019,0.0445,0.0075,-0.0238,-0.1138,0
12177649,0.999,-0.01,0.0019,0.0445,-0.0081,-0.011,-0.1099,0
12177816,0.999,-0.01,0.0019,0.0445,-0.013,-0.0189,-0.1306,0
12177983,0.999,-0.01,0.0019,0.0445,-0.0015,-0.0079,-0.1223,0
12178149,0.999,-0.01,0.0019,0.0445,-0.0048,0.0103,-0.1138,0
12178316,0.999,-0.01,0.0019,0.0445,0.0041,0.0007,-0.098,0
12178483,0.999,-0.01,0.0019,0.0445,0.013,-0.0087,-0.0817,0
12178649,0.999,-0.01,0.0019,0.0445,-0.0099,-0.007,-0.1193,0
12178816,0.999,-0.01,0.0019,0.0445,-0.0125,-0.0185,-0.102,0
12178983,0.999,-0.01,0.0019,0.0445,-0.0099,-0.0219,-0.092,0
12179149,0.999,-0.01,0.0019,0.0445,-0.0026,-0.0041,-0.134,0
12179316,0.999,-0.01,0.0019,0.0445,0.0066,0.0003,-0.081,0
12179483,0.999,-0.01,0.0019,0.0445,0.0082,0.0022,-0.0886,0
12179649,0.999,-0.01,0.0019,0.0445,0.0026,0.0084,-0.11,0
12179816,0.999,-0.01,0.0019,0.0445,0.0095,-0.0018,-0.0794,0
12179983,0.999,-0.01,0.0019,0.0445,-0.0203,-0.0115,-0.1059,0
12180149,0.999,-0.01,0.0019,0.0445,-0.0025,-0.0135,-0.1108,0
12180316,0.999,-0.01,0.0019,0.0445,0.0103,-0.0153,-0.1146,0
12180483,0.999,-0.01,0.0019,0.0445,0.0021,0.0025,-0.0989,0
12180649,0.999,-0.01,0.0019,0.0445,0.0137,-0.0034,-0.0955,0
12180816,0.999,-0.01,0.0019,0.0445,0.018,-0.013,-0.1023,0
12180983,0.999,-0.01,0.0019,0.0445,-0.0034,-0.0028,-0.0997,0
12181149,0.999,-0.01,0.002,0.0445,-0.0009,-0.0177,-0.1018,0
12181316,0.999,-0.01,0.002,0.0445,-0.0007,-0.0073,-0.1118,0
12181483,0.999,-0.01,0.002,0.0445,0.0052,-0.0162,-0.1305,0
12181649,0.999,-0.01,0.002,0.0445,0.0207,-0.001,-0.0859,0
12181816,0.999,-0.01,0.0019,0.0445,0.0327,0.0008,-0.0896,0
12181983,0.999,-0.01,0.0019,0.0445,0.0107,0.0069,-0.1083,0
12182149,0.999,-0.01,0.002,0.0445,0.0162,-0.0088,-0.0896,0
12182316,0.999,-0.01,0.002,0.0445,-0.0098,-0.0236,-0.0878,0
12182483,0.999,-0.01,0.002,0.0445,-0.0092,-0.0016,-0.1228,0
12182649,0.999,-0.01,0.002,0.0445,0.0053,0.0053,-0.0944,0
12182816,0.999,-0.01,0.002,0.0445,0.0081,0.0146,-0.0892,0
12182983,0.999,-0.01,0.002,0.0445,0.0127,-0.0001,-0.0929,0
12183149,0.999,-0.01,0.002,0.0445,0.0008,0.0021,-0.1014,0
12183316,0.999,-0.01,0.002,0.0445,0.0011,-0.0054,-0.1107,0
12183483,0.999,-0.01,0.002,0.0445,-0.0073,-0.0188,-0.1177,0
12183649,0.999,-0.01,0.002,0.0445,-0.0211,-0.0102,-0.0941,0
12183816,0.999,-0.01,0.002,0.0445,-0.0007,-0.0191,-0.1002,0
12183983,0.999,-0.01,0.002,0.0445,0.0226,-0.0028,-0.1089,0
12184149,0.999,-0.01,0.002,0.0445,0.0211,0.0214,-0.0704,0
12184316,0.999,-0.01,0.002,0.0445,0.0134,0.019,-0.1072,0
12184483,0.999,-0.01,0.002,0.0445,0.0057,0.0066,-0.0857,0
12184649,0.999,-0.01,0.002,0.0445,-0.0146,-0.003,-0.1083,0
12184816,0.999,-0.01,0.002,0.0445,0.0032,-0.0102,-0.1572,0
12184983,0.999,-0.01,0.002,0.0445,-0.0016,0.0046,-0.0893,0
12185149,0.999,-0.01,0.002,0.0445,0.0083,-0.0053,-0.0889,0
12185316,0.999,-0.01,0.002,0.0445,0.0125,0.003,-0.0734,0
12185483,0.999,-0.01,0.002,0.0445,0.0169,0.0018,-0.1125,0
12185649,0.999,-0.01,0.002,0.0445,-0.007,-0.0093,-0.0791,0
12185816,0.999,-0.01,0.002,0.0445,-0.0133,-0.0077,-0.0828,0
12185983,0.999,-0.01,0.002,0.0445,-0.0012,-0.0111,-0.1441,0
12186149,0.999,-0.01,0.002,0.0445,0.0062,-0.0077,-0.0956,0
12186316,0.999,-0.01,0.002,0.0445,0.0159,0.0154,-0.1082,0
12186483,0.999,-0.01,0.002,0.0445,0.0089,-0.0016,-0.102,0
12186649,0.999,-0.01,0.002,0.0445,0.0059,0.0102,-0.0753,0
12186816,0.999,-0.01,0.002,0.0445,0.0106,0.0041,-0.1153,0
12186983,0.999,-0.01,0.002,0.0445,-0.0026,-0.0008,-0.1163,0
12187149,0.999,-0.01,0.002,0.0445,-0.0136,-0.0085,-0.1104,0
12187316,0.999,-0.01,0.002,0.0445,-0.0108,-0.0204,-0.0904,0
12187483,0.999,-0.01,0.002,0.0445,-0.0046,-0.0182,-0.1153,0
12187649,0.999,-0.01,0.002,0.0445,0.0086,0.0029,-0.0981,0
12187816,0.999,-0.01,0.002,0.0445,0.0132,0.0023,-0.116,0
12187983,0.999,-0.01,0.002,0.0445,0.0099,-0.0121,-0.1195,0
12188149,0.999,-0.01,0.002,0.0445,-0.0045,-0.0082,-0.1176,0
12188316,0.999,-0.01,0.002,0.0445,-0.001,-0.0284,-0.1144,0
12188483,0.999,-0.01,0.002,0.0445,0.0035,-0.0076,-0.1082,0
12188649,0.999,-0.01,0.002,0.0445,0.013,-0.0055,-0.074,0
12188816,0.999,-0.01,0.002,0.0445,0.016,0.0045,-0.088,0
12188983,0.999,-0.01,0.002,0.0445,0.0067,0.0221,-0.0826,0
12189150,0.999,-0.01,0.002,0.0445,-0.0043,0.0024,-0.1025,0
12189316,0.999,-0.01,0.002,0.0445,-0.0097,-0.0028,-0.1135,0
12189483,0.999,-0.01,0.002,0.0445,-0.0128,-0.0142,-0.1215,0
12189650,0.999,-0.01,0.002,0.0445,0.0113,-0.009,-0.1085,0
12189816,0.999,-0.01,0.002,0.0445,0.007,0.0071,-0.0988,0
12189983,0.999,-0.01,0.002,0.0445,0.0145,0.0091,-0.078,0
12190150,0.999,-0.01,0.002,0.0445,0.0013,0.0076,-0.0906,0
12190316,0.999,-0.0101,0.002,0.0445,-0.0028,0.0001,-0.1102,0
12190483,0.999,-0.0101,0.002,0.0445,-0.0008,-0.0162,-0.1373,0
12190650,0.999,-0.0101,0.002,0.0445,-0.0069,-0.0142,-0.098,0
12190816,0.999,-0.0101,0.002,0.0445,0.0034,-0.0008,-0.0912,0
12190983,0.999,-0.0101,0.0019,0.0446,0.0065,0.0072,-0.1046,0
12191150,0.999,-0.0101,0.0019,0.0446,0.0038,0.0125,-0.0761,0
12191316,0.999,-0.0101,0.0019,0.0446,0.0044,0.0281,-0.0894,0
12191483,0.999,-0.0101,0.0019,0.0446,-0.0102,0.0041,-0.1028,0
12191650,0.999,-0.0101,0.0019,0.0446,-0.003,-0.0115,-0.1082,0
12191816,0.999,-0.0101,0.002,0.0446,-0.0199,-0.0202,-0.1162,0
12191983,0.999,-0.0101,0.002,0.0446,0.0026,-0.0063,-0.0897,0
12192150,0.999,-0.0101,0.002,0.0446,0.0053,0.0044,-0.0769,0
12192316,0.999,-0.0101,0.002,0.0446,0.0133,0.0186,-0.0862,0
12192483,0.999,-0.0101,0.0019,0.0446,0.0183,-0.0055,-0.0806,0
12192650,0.999,-0.0101,0.0019,0.0446,-0.015,-0.0004,-0.109,0
12192816,0.999,-0.0101,0.0019,0.0446,0.0034,-0.0126,-0.0974,0
12192983,0.999,-0.0101,0.0019,0.0446,-0.0125,-0.0093,-0.096,0
12193150,0.999,-0.0101,0.0019,0.0446,-0.0067,-0.0044,-0.1051,0
12193316,0.9989,-0.0101,0.0019,0.0446,0.0228,0.0043,-0.1032,0
12193483,0.999,-0.0101,0.0019,0.0446,0.0046,0.0173,-0.0692,0
12193650,0.999,-0.0101,0.0019,0.0446,0.0072,0.0186,-0.0897,0
12193816,0.999,-0.0101,0.0019,0.0446,-0.0083,0.0006,-0.1191,0
12193983,0.999,-0.0101,0.002,0.0446,-0.0095,-0.0059,-0.1046,0
12194150,0.999,-0.0101,0.0019,0.0446,-0.0012,-0.0167,-0.1089,0
12194316,0.999,-0.0101,0.0019,0.0446,0.0094,-0.0029,-0.1225,0
12194483,0.999,-0.0101,0.0019,0.0446,0.0067,0.0165,-0.081,0
12194650,0.999,-0.0101,0.0019,0.0446,0.014,0.0168,-0.1111,0
12194816,0.999,-0.0101,0.0019,0.0446,0.0077,0.0124,-0.0841,0
12194983,0.999,-0.0101,0.0019,0.0446,-0.0019,-0.018,-0.0917,0
12195150,0.999,-0.0101,0.0019,0.0446,-0.0087,-0.0161,-0.1112,0
12195316,0.999,-0.0101,0.002,0.0446,-0.0068,-0.0146,-0.1212,0
12195483,0.999,-0.0101,0.0019,0.0446,0.0015,0.0089,-0.0896,0
12195650,0.999,-0.0101,0.0019,0.0446,0.0089,0.0097,-0.0901,0
12195816,0.999,-0.0101,0.0019,0.0446,0.0097,0.0062,-0.0897,0
12195983,0.999,-0.0101,0.002,0.0446,0.004,-0.0023,-0.0966,0
12196150,0.999,-0.0101,0.0019,0.0446,0.008,-0.0155,-0.1151,0
12196316,0.999,-0.0101,0.0019,0.0446,-0.0145,-0.0103,-0.1042,0
12196483,0.999,-0.0101,0.0019,0.0446,-0.0078,-0.01,-0.1128,0
12196650,0.999,-0.0101,0.002,0.0446,-0.0066,-0.0059,-0.1001,0
12196816,0.999,-0.0101,0.002,0.0446,-0.0009,0.0089,-0.0572,0
12196983,0.999,-0.0101,0.002,0.0446,0.0192,0.0107,-0.0775,0
12197150,0.999,-0.0101,0.002,0.0446,0.0059,-0.0179,-0.1211,0
12197316,0.999,-0.0101,0.002,0.0446,0.0044,-0.0136,-0.1136,0
12197483,0.999,-0.0101,0.002,0.0446,-0.0008,-0.0233,-0.114,0
12197650,0.999,-0.0101,0.0019,0.0446,-0.0078,-0.0183,-0.1252,0
12197816,0.999,-0.0101,0.0019,0.0446,0.0041,0.0066,-0.0868,0
12197983,0.999,-0.0101,0.0019,0.0446,0.0138,0.0155,-0.089,0
12198150,0.999,-0.0101,0.0019,0.0446,0.0194,-0.0003,-0.0747,0
12198316,0.999,-0.0101,0.0019,0.0446,0.0165,0.0032,-0.0791,0
12198483,0.999,-0.0101,0.0019,0.0446,0.0046,-0.0081,-0.1029,0
12198650,0.999,-0.0101,0.0019,0.0446,0.0002,-0.0199,-0.0979,0
12198816,0.999,-0.0101,0.0019,0.0446,-0.0189,-0.006,-0.1057,0
12198983,0.999,-0.0101,0.0019,0.0446,-0.0083,-0.0029,-0.1126,0
12199150,0.999,-0.0101,0.0019,0.0446,0.0027,-0.0083,-0.0943,0
12199316,0.999,-0.0101,0.0019,0.0446,0.012,-0.0015,-0.0948,0
12199483,0.999,-0.0101,0.002,0.0446,-0.0053,-0.0092,-0.1081,0
12199650,0.999,-0.0101,0.002,0.0446,0.0013,-0.0066,-0.0843,0
12199816,0.999,-0.0101,0.0019,0.0446,-0.0164,0.0038,-0.1067,0
12199983,0.999,-0.0101,0.0019,0.0446,-0.0234,-0.0123,-0.1261,0
12200150,0.999,-0.0101,0.0019,0.0446,0.0019,-0.0081,-0.1109,0
12200316,0.9989,-0.0101,0.0019,0.0446,0.0147,-0.0062,-0.0907,0
12200483,0.9989,-0.0101,0.0019,0.0447,0.0025,0.0168,-0.0686,0
12200650,0.9989,-0.0101,0.0019,0.0447,0.0097,0.0028,-0.104,0
12200816,0.9989,-0.0101,0.0019,0.0447,-0.0101,0.0057,-0.0906,0
12200983,0.9989,-0.0101,0.002,0.0447,-0.0112,-0.012,-0.0891,0
12201150,0.9989,-0.0101,0.002,0.0447,-0.013,-0.0095,-0.1086,0
12201316,0.9989,-0.0101,0.002,0.0447,0.0043,0.006,-0.0892,0
12201483,0.9989,-0.0101,0.0019,0.0447,0.0208,0.0087,-0.0825,0
12201650,0.9989,-0.0101,0.0019,0.0447,0.0214,0.0155,-0.1076,0
12201816,0.9989,-0.0101,0.0019,0.0447,0.0013,0.0046,-0.0995,0
12201983,0.9989,-0.0101,0.0019,0.0447,-0.0014,-0.015,-0.0951,0
12202150,0.9989,-0.0101,0.0019,0.0447,-0.0033,-0.0061,-0.1187,0
12202316,0.9989,-0.0101,0.0019,0.0447,-0.0178,-0.0103,-0.1068,0
12202483,0.9989,-0.0101,0.0019,0.0447,-0.0092,-0.0041,-0.1057,0
12202650,0.9989,-0.0101,0.0019,0.0447,0.001,0.0043,-0.0966,0
12202816,0.9989,-0.0101,0.0019,0.0447,0.0086,0.0141,-0.0906,0
12202983,0.9989,-0.0101,0.0019,0.0447,0.013,-0.0115,-0.0734,0
12203150,0.9989,-0.0101,0.0019,0.0447,-0.0088,-0.0106,-0.1037,0
12203316,0.9989,-0.0101,0.0019,0.0447,-0.007,-0.0188,-0.1159,0
12203483,0.9989,-0.0101,0.0019,0.0447,0.0152,-0.0139,-0.1036,0
12203650,0.9989,-0.0101,0.0019,0.0447,0,0.0051,-0.0957,0
12203816,0.9989,-0.0101,0.0019,0.0447,-0.0029,0.0185,-0.0877,0
12203983,0.9989,-0.0101,0.0019,0.0447,0.0003,-0.0032,-0.0834,0
12204150,0.9989,-0.0101,0.0019,0.0447,0.0047,0.0064,-0.1159,0
12204316,0.9989,-0.0101,0.0019,0.0447,-0.0074,0.0078,-0.1289,0
12204483,0.9989,-0.0101,0.0019,0.0447,-0.0136,-0.0156,-0.0966,0
12204650,0.9989,-0.0101,0.0019,0.0447,-0.0046,-0.0093,-0.1065,0
12204816,0.9989,-0.0101,0.0019,0.0447,-0.0025,-0.0139,-0.1062,0
12204983,0.9989,-0.0101,0.0019,0.0447,0.0173,0.0183,-0.0865,0
12205150,0.9989,-0.0101,0.0019,0.0447,0.0015,0.0037,-0.0921,0
12205316,0.9989,-0.0101,0.0019,0.0447,0.0107,0.0058,-0.0891,0
12205483,0.9989,-0.0101,0.0019,0.0447,-0.0064,-0.0096,-0.1015,0
12205650,0.9989,-0.0101,0.0019,0.0447,-0.006,0.0006,-0.094,0
12205817,0.9989,-0.0101,0.0019,0.0447,-0.0143,-0.0066,-0.1073,0
12205983,0.9989,-0.0101,0.0019,0.0447,-0.001,-0.0046,-0.1098,0
12206150,0.9989,-0.0101,0.0019,0.0447,0.0104,-0.0042,-0.1084,0
12206317,0.9989,-0.0101,0.0019,0.0447,0.0074,0.0032,-0.1098,0
12206483,0.9989,-0.0101,0.0019,0.0447,-0.0117,-0.0076,-0.0801,0
12206650,0.9989,-0.0101,0.0019,0.0448,-0.0039,-0.0108,-0.1067,0
12206817,0.9989,-0.0101,0.0019,0.0448,-0.0065,-0.0023,-0.0994,0
12206983,0.9989,-0.0101,0.0019,0.0448,0.0023,-0.0145,-0.0744,0
12207150,0.9989,-0.0101,0.0019,0.0448,0.0101,-0.0089,-0.076,0
12207317,0.9989,-0.0101,0.0019,0.0447,0.0157,0.0065,-0.0902,0
12207483,0.9989,-0.0101,0.0019,0.0448,0.0071,-0.0011,-0.0848,0
12207650,0.9989,-0.0101,0.0019,0.0447,0.0065,-0.0014,-0.0967,0
12207817,0.9989,-0.0101,0.0019,0.0448,-0.0183,-0.0108,-0.097,0
12207983,0.9989,-0.0101,0.002,0.0448,-0.0077,-0.006,-0.1017,0
12208150,0.9989,-0.0101,0.002,0.0448,-0.0051,-0.0083,-0.1104,0
12208317,0.9989,-0.0101,0.002,0.0448,0.0034,-0.0015,-0.1058,0
12208483,0.9989,-0.0102,0.002,0.0448,0.0108,0.0027,-0.0916,0
12208650,0.9989,-0.0102,0.002,0.0448,-0.0019,0.0002,-0.106,0
12208817,0.9989,-0.0102,0.002,0.0448,0.0058,-0.0131,-0.0961,0
12208983,0.9989,-0.0102,0.002,0.0448,-0.0119,-0.0039,-0.1108,0
12209150,0.9989,-0.0102,0.002,0.0448,-0.0089,-0.0076,-0.1093,0
12209317,0.9989,-0.0102,0.002,0.0448,0.0056,-0.0066,-0.0896,0
12209483,0.9989,-0.0102,0.002,0.0448,0.0005,0.0079,-0.1069,0
12209650,0.9989,-0.0102,0.0019,0.0448,0.0017,0.0033,-0.0865,0
12209817,0.9989,-0.0102,0.0019,0.0448,0.0128,0.0041,-0.0988,0
12209983,0.9989,-0.0102,0.0019,0.0448,0.0057,-0.0064,-0.0931,0
12210150,0.9989,-0.0102,0.0019,0.0448,-0.0135,0.0023,-0.0885,0
12210317,0.9989,-0.0102,0.002,0.0448,-0.0082,-0.0041,-0.1139,0
12210483,0.9989,-0.0102,0.002,0.0448,-0.0019,-0.0142,-0.1217,0
12210650,0.9989,-0.0102,0.002,0.0448,0.0071,-0.0023,-0.0927,0
12210817,0.9989,-0.0102,0.002,0.0448,0.0034,0.0129,-0.1079,0
12210983,0.9989,-0.0101,0.0019,0.0448,0.0075,-0.0023,-0.0603,0
12211150,0.9989,-0.0101,0.0019,0.0448,0.0079,-0.008,-0.0997,0
12211317,0.9989,-0.0101,0.0019,0.0448,-0.0047,-0.0019,-0.1084,0
12211483,0.9989,-0.0101,0.0019,0.0448,-0.0191,-0.0255,-0.0839,0
12211650,0.9989,-0.0101,0.0019,0.0448,-0.0005,-0.0087,-0.1103,0
12211817,0.9989,-0.0101,0.0019,0.0448,0.0065,-0.0027,-0.0946,0
12211983,0.9989,-0.0101,0.0019,0.0448,0.0102,0.0043,-0.0822,0
12212150,0.9989,-0.0101,0.0019,0.0448,0.0164,-0.0111,-0.113,0
12212317,0.9989,-0.0101,0.0019,0.0448,-0.0079,-0.0031,-0.1212,0
12212483,0.9989,-0.0101,0.0019,0.0448,-0.0115,0.0022,-0.1137,0
12212650,0.9989,-0.0101,0.0019,0.0448,-0.0033,-0.0181,-0.0986,0
12212817,0.9989,-0.0101,0.0019,0.0448,-0.0091,-0.0159,-0.1249,0
12212983,0.9989,-0.0101,0.0019,0.0448,0.0103,0.0036,-0.0911,0
12213150,0.9989,-0.0101,0.0019,0.0448,0.0085,-0.0027,-0.1048,0
12213317,0.9989,-0.0101,0.0019,0.0448,-0.0139,0.0109,-0.1163,0
12213483,0.9989,-0.0101,0.0019,0.0448,-0.0087,0.0022,-0.101,0
12213650,0.9989,-0.0101,0.0019,0.0448,0.0125,-0.0038,-0.0984,0
12213817,0.9989,-0.0101,0.0019,0.0448,-0.0053,-0.0139,-0.1068,0
12213983,0.9989,-0.0101,0.0019,0.0448,0.0064,-0.0076,-0.1062,0
12214150,0.9989,-0.0101,0.0019,0.0448,0.0021,0.0062,-0.0796,0
12214317,0.9989,-0.0101,0.002,0.0448,0.0065,-0.0026,-0.0915,0
12214483,0.9989,-0.0101,0.0019,0.0448,-0.0102,0.0028,-0.0954,0
12214650,0.9989,-0.0101,0.0019,0.0448,-0.0107,0.0054,-0.1138,0
12214817,0.9989,-0.0101,0.002,0.0448,-0.0022,-0.0076,-0.1032,0
12214983,0.9989,-0.0101,0.002,0.0448,-0.0048,-0.0049,-0.0979,0
12215150,0.9989,-0.0101,0.002,0.0448,-0.0062,-0.0082,-0.0907,0
12215317,0.9989,-0.0101,0.002,0.0448,0.0099,-0.0011,-0.0978,0
12215483,0.9989,-0.0101,0.002,0.0448,0.0067,0.0019,-0.0779,0
12215650,0.9989,-0.0101,0.002,0.0448,0.0074,0.0147,-0.1106,0
12215817,0.9989,-0.0101,0.002,0.0448,-0.0094,-0.0191,-0.0959,0
12215983,0.9989,-0.0101,0.002,0.0448,-0.0199,-0.0086,-0.1265,0
12216150,0.9989,-0.0101,0.002,0.0448,0.0012,-0.0191,-0.1197,0
12216317,0.9989,-0.0101,0.002,0.0448,0.0043,-0.0071,-0.0935,0
12216483,0.9989,-0.0101,0.002,0.0448,0.0006,-0.0062,-0.0906,0
12216650,0.9989,-0.0101,0.002,0.0449,0.0066,0.0218,-0.1167,0
12216817,0.9989,-0.0101,0.002,0.0449,-0.0109,0.0055,-0.0958,0
12216983,0.9989,-0.0101,0.002,0.0449,-0.0055,-0.0077,-0.1129,0
12217150,0.9989,-0.0101,0.002,0.0449,-0.008,-0.0142,-0.1146,0
12217317,0.9989,-0.0101,0.002,0.0449,-0.0016,-0.0061,-0.1227,0
12217483,0.9989,-0.0101,0.002,0.0449,-0.0013,-0.0104,-0.0945,0
12217650,0.9989,-0.0101,0.002,0.0449,0.0054,0.0044,-0.0882,0
12217817,0.9989,-0.0101,0.002,0.0449,0.0106,0.0007,-0.1023,0
12217983,0.9989,-0.0101,0.002,0.0449,-0.0001,-0.0133,-0.119,0
12218150,0.9989,-0.0101,0.002,0.0449,-0.0062,-0.0005,-0.1054,0
12218317,0.9989,-0.0101,0.002,0.0449,0.0042,-0.0093,-0.1024,0
12218483,0.9989,-0.0101,0.002,0.0449,-0.0077,0.0034,-0.0995,0
12218650,0.9989,-0.0101,0.002,0.0449,0.0034,-0.0035,-0.0854,0
12218817,0.9989,-0.0101,0.002,0.0449,0.0111,0.0037,-0.0974,0
12218983,0.9989,-0.0101,0.002,0.0449,0.0186,0.0001,-0.0733,0
12219150,0.9989,-0.0101,0.002,0.0449,0.0139,-0.0016,-0.0896,0
12219317,0.9989,-0.0101,0.002,0.0449,-0.0172,-0.0084,-0.0957,0
12219483,0.9989,-0.0101,0.002,0.0449,-0.0053,-0.0114,-0.1218,0
12219650,0.9989,-0.0101,0.002,0.0449,-0.0053,-0.0133,-0.1135,0
12219817,0.9989,-0.0101,0.002,0.0449,0.0029,0.0017,-0.1069,0
12219983,0.9989,-0.0101,0.002,0.0449,0.0043,0.0085,-0.1037,0
12220150,0.9989,-0.0101,0.002,0.0449,-0.0061,-0.001,-0.1312,0
12220317,0.9989,-0.0101,0.002,0.0449,-0.0045,-0.008,-0.1118,0
12220483,0.9989,-0.0101,0.002,0.0449,-0.0048,-0.0096,-0.1199,0
12220650,0.9989,-0.0101,0.002,0.0449,0.0081,-0.0158,-0.1137,0
12220817,0.9989,-0.0101,0.002,0.0449,-0.0003,-0.0183,-0.0988,0
12220983,0.9989,-0.0101,0.002,0.0449,0.0125,0.0117,-0.0794,0
12221150,0.9989,-0.0101,0.002,0.0449,0.0028,0.0119,-0.0842,0
12221317,0.9989,-0.0101,0.002,0.0449,0.0042,-0.0078,-0.0875,0
12221483,0.9989,-0.0101,0.002,0.0449,0.0126,-0.0071,-0.0918,0
12221650,0.9989,-0.0101,0.002,0.0449,0.0178,-0.0139,-0.1353,0
12221817,0.9989,-0.0102,0.002,0.0449,0.0011,-0.0015,-0.1196,0
12221983,0.9989,-0.0102,0.002,0.0449,0.0031,-0.0005,-0.0935,0
12222150,0.9989,-0.0102,0.002,0.0449,0.0055,-0.0062,-0.1012,0
12222317,0.9989,-0.0102,0.002,0.0449,0.0057,0.0032,-0.1099,0
12222484,0.9989,-0.0102,0.002,0.0449,0.0031,0.0004,-0.0946,0
12222650,0.9027,-0.0101,-0.0021,0.4301,0.0081,-0.001,-0.092,0
12222817,0.9027,-0.0101,-0.0021,0.4301,-0.001,-0.0264,-0.1208,0
12222984,0.9999,-0.01,0.0024,0,-0.0077,0.0037,-0.1144,0
12223150,0.9999,-0.0101,0.0024,0,0.0071,-0.0085,-0.1006,0
12223317,0.9999,-0.0101,0.0024,0,0.0143,0.0073,-0.1145,0
12223484,0.9999,-0.0101,0.0024,0,0.0173,0.003,-0.0732,0
12223650,0.9999,-0.0101,0.0024,0,-0.0012,0.0002,-0.0824,0
12223817,0.9999,-0.0101,0.0024,0,0.0105,-0.0066,-0.1263,0
12223984,0.9999,-0.01,0.0024,0,-0.0046,-0.0075,-0.1304,0
12224150,0.9999,-0.0101,0.0024,0,-0.0187,0.0014,-0.0886,0
12224317,0.9999,-0.0101,0.0024,0,-0.0024,-0.0015,-0.1117,0
12224484,0.9999,-0.0101,0.0024,0,-0.01,-0.0045,-0.092,0
12224650,0.9999,-0.0101,0.0024,0,-0.0006,0.0045,-0.0939,0
12224817,0.9999,-0.0101,0.0024,0,0.0076,0.0039,-0.1037,0
12224984,0.9999,-0.0101,0.0024,0,-0.0075,0.0028,-0.0985,0
12225150,0.9999,-0.0101,0.0024,0,0.0004,0.0021,-0.11,0
12225317,0.9999,-0.0101,0.0024,0.0001,-0.0151,-0.0151,-0.1216,0
12225484,0.9999,-0.0101,0.0024,0.0001,0.0043,-0.0012,-0.0806,0
12225650,0.9999,-0.0101,0.0024,0.0001,0.0148,0.0012,-0.102,0
12225817,0.9999,-0.0101,0.0024,0.0001,0.0063,0.0021,-0.0673,0
12225984,0.9999,-0.0101,0.0024,0.0001,0.0017,0.0046,-0.0959,0
12226150,0.9999,-0.0101,0.0025,0.0001,-0.0059,-0.0034,-0.1162,0
12226317,0.9999,-0.0101,0.0025,0.0001,-0.0152,-0.0006,-0.1061,0
12226484,0.9999,-0.0101,0.0025,0.0001,0.0024,-0.0042,-0.11,0
12226650,0.9999,-0.0101,0.0024,0.0001,0.0066,0.0071,-0.0989,0
12226817,0.9999,-0.0101,0.0024,0.0001,0.0084,0.0075,-0.1019,0
12226984,0.9999,-0.0101,0.0025,0.0001,0.0059,-0.0036,-0.1031,0
12227150,0.9999,-0.0101,0.0025,0.0001,0.0008,-0.0026,-0.0986,0
12227317,0.9999,-0.0101,0.0025,0.0001,0.0071,0.0052,-0.125,0
12227484,0.9999,-0.0101,0.0025,0.0001,-0.0128,-0.0036,-0.1275,0
12227650,0.9999,-0.0101,0.0024,0.0001,-0.0049,-0.0024,-0.1094,0
12227817,0.9999,-0.0101,0.0024,0.0001,0.0073,0.0033,-0.1274,0
12227984,0.9999,-0.0101,0.0025,0.0001,0.0103,0.0013,-0.101,0
12228150,0.9999,-0.0101,0.0025,0.0001,0.0206,0.0044,-0.085,0
12228317,0.9999,-0.0101,0.0024,0.0001,0.0306,0.0036,-0.0734,0
12228484,0.9999,-0.0101,0.0025,0.0001,0.0015,-0.002,-0.1089,0
12228650,0.9999,-0.0101,0.0025,0.0001,-0.0066,0.003,-0.1223,0
12228817,0.9999,-0.0101,0.0025,0.0001,-0.0137,0.0012,-0.1194,0
12228984,0.9999,-0.0101,0.0025,0.0001,-0.0122,-0.003,-0.0945,0
12229150,0.9999,-0.0101,0.0025,0.0001,0.0017,0.0067,-0.0885,0
12229317,0.9999,-0.0101,0.0025,0.0001,0.0152,-0.0021,-0.1062,0
12229484,0.9999,-0.0101,0.0025,0.0001,0.0044,0.0003,-0.1014,0
12229650,0.9999,-0.0101,0.0025,0.0001,0.0036,-0.0205,-0.0976,0
12229817,0.9999,-0.0101,0.0025,0.0001,-0.0128,-0.0064,-0.1113,0
12229984,0.9999,-0.0101,0.0025,0.0001,-0.0046,-0.0076,-0.1198,0
12230150,0.9999,-0.0101,0.0025,0.0001,0.0067,-0.0231,-0.1159,0
12230317,0.9999,-0.0101,0.0025,0.0001,0.0171,-0.0147,-0.0897,0
12230484,0.9999,-0.0101,0.0025,0.0001,0.0165,0.0087,-0.0676,0
12230650,0.9999,-0.0101,0.0025,0.0001,0.0165,-0.0005,-0.0808,0
12230817,0.9999,-0.0101,0.0025,0.0001,0.0052,0.0147,-0.0824,0
12230984,0.9999,-0.0101,0.0024,0.0001,-0.0031,-0.0148,-0.1103,0
12231150,0.9999,-0.0101,0.0024,0.0001,-0.0191,0.002,-0.1067,0
12231317,0.9999,-0.0101,0.0024,0.0001,0.0071,-0.0109,-0.1144,0
12231484,0.9999,-0.0101,0.0024,0.0001,0.0058,-0.0088,-0.1005,0
12231650,0.9999,-0.0101,0.0024,0.0001,0.0214,-0.0024,-0.0777,0
12231817,0.9999,-0.0101,0.0024,0.0001,0.0067,-0.0006,-0.0982,0
12231984,0.9999,-0.0101,0.0024,0.0001,0.0109,-0.0097,-0.0788,0
12232150,0.9999,-0.0101,0.0024,0.0001,-0.0202,-0.0051,-0.1104,0
12232317,0.9999,-0.0101,0.0023,0.0001,-0.0083,-0.0019,-0.1096,0
12232484,0.9999,-0.0101,0.0023,0.0001,-0.0073,-0.0074,-0.1063,0
12232650,0.9999,-0.0101,0.0023,0.0001,0.0003,0.0076,-0.0977,0
12232817,0.9999,-0.0101,0.0023,0.0001,0.0059,-0.009,-0.0996,0
12232984,0.9999,-0.0101,0.0023,0.0001,0.0315,0.0091,-0.1162,0
12233150,0.9999,-0.0101,0.0023,0.0001,0.0019,-0.0003,-0.0968,0
12233317,0.9999,-0.0101,0.0023,0.0001,-0.0047,-0.0034,-0.1171,0
12233484,0.9999,-0.0101,0.0023,0.0001,-0.0142,-0.0216,-0.1168,0
12233650,0.9999,-0.0101,0.0024,0.0001,-0.0011,-0.0019,-0.1014,0
12233817,0.9999,-0.0101,0.0024,0.0001,-0.0149,-0.011,-0.1224,0
12233984,0.9999,-0.0101,0.0023,0.0001,0.0135,0.0074,-0.0779,0
12234150,0.9999,-0.0101,0.0023,0.0001,0.0004,0.0158,-0.0934,0
12234317,0.9999,-0.0101,0.0023,0.0001,-0.002,0.0106,-0.1238,0
12234484,0.9999,-0.0101,0.0023,0.0001,0.0035,-0.012,-0.0914,0
12234650,0.9999,-0.0101,0.0023,0.0001,-0.0126,-0.0104,-0.1158,0
12234817,0.9999,-0.0101,0.0023,0.0001,-0.0055,-0.0033,-0.1259,0
12234984,0.9999,-0.0101,0.0023,0.0001,0.0107,-0.0062,-0.1009,0
12235150,0.9999,-0.0101,0.0023,0.0001,0.0059,-0.004,-0.1104,0
12235317,0.9999,-0.0101,0.0023,0.0001,0.0036,0.0103,-0.1055,0
12235484,0.9999,-0.0101,0.0023,0.0001,0.0084,0.0104,-0.0846,0
12235650,0.9999,-0.0101,0.0023,0.0001,-0.0069,0.0072,-0.1122,0
12235817,0.9999,-0.0101,0.0023,0.0001,-0.0063,0.0008,-0.095,0
12235984,0.9999,-0.0101,0.0023,0.0001,-0.0107,-0.0046,-0.0881,0
12236150,0.9999,-0.0101,0.0023,0.0001,0.0074,-0.012,-0.0887,0
12236317,0.9999,-0.0101,0.0023,0.0001,0.023,0.007,-0.095,0
12236484,0.9999,-0.0101,0.0023,0.0001,0.0121,0.0234,-0.068,0
12236650,0.9999,-0.0101,0.0023,0.0001,-0.0022,0.0098,-0.1215,0
12236817,0.9999,-0.0101,0.0023,0.0001,-0.0049,-0.0123,-0.1301,0
12236984,0.9999,-0.0101,0.0023,0.0001,-0.0229,-0.0018,-0.1332,0
12237150,0.9999,-0.0101,0.0023,0.0001,-0.0225,-0.0065,-0.1265,0
12237317,0.9999,-0.01,0.0023,0.0001,0.0089,0.0039,-0.1172,0
12237484,0.9999,-0.0101,0.0023,0.0001,-0.003,-0.0075,-0.0575,0
12237650,0.9999,-0.0101,0.0023,0.0001,0.0188,-0.0039,-0.0845,0
12237817,0.9999,-0.0101,0.0023,0.0001,0.0159,-0.0075,-0.0907,0
12237984,0.9999,-0.0101,0.0023,0.0001,-0.0115,-0.0252,-0.1375,0
12238150,0.9999,-0.01,0.0023,0.0001,-0.0249,0.004,-0.0704,0
12238317,0.9999,-0.0101,0.0023,0.0001,-0.0077,0.0141,-0.0972,0
12238484,0.9999,-0.0101,0.0023,0.0001,0.0156,0.0022,-0.0927,0
12238650,0.9999,-0.0101,0.0023,0.0001,0.0235,0.0142,-0.0601,0
12238817,0.9999,-0.0101,0.0024,0.0001,0.0241,-0.0206,-0.1128,0
12238984,0.9999,-0.0101,0.0024,0.0001,-0.0101,-0.044,-0.1038,0
12239151,0.9999,-0.0101,0.0024,0.0001,-0.0153,-0.0172,-0.0815,0
12239317,0.9999,-0.0101,0.0024,0.0001,-0.0005,0.0002,-0.1476,0
12239484,0.9999,-0.0101,0.0024,0.0001,-0.009,0.0121,-0.1142,0
12239651,0.9999,-0.0101,0.0024,0.0001,-0.002,-0.0156,-0.1189,0
12239817,0.9999,-0.0101,0.0024,0.0001,0.0023,-0.0045,-0.1072,0
12239984,0.9999,-0.0101,0.0024,0.0001,-0.0149,0.012,-0.0858,0
12240151,0.9999,-0.0101,0.0024,0.0001,-0.0219,-0.0085,-0.143,0
12240317,0.9999,-0.0101,0.0024,0.0001,-0.0009,-0.0056,-0.132,0
12240484,0.9999,-0.0101,0.0024,0.0002,-0.0011,0.0027,-0.0721,0
12240651,0.9999,-0.0101,0.0024,0.0002,0.0196,-0.0028,-0.1165,0
12240817,0.9999,-0.0101,0.0024,0.0002,0.0138,-0.0151,-0.076,0
12240984,0.9999,-0.0101,0.0024,0.0002,0.0031,0.0091,-0.0836,0
12241151,0.9999,-0.0101,0.0024,0.0002,-0.0051,0.0018,-0.1275,0
12241317,0.9999,-0.0101,0.0024,0.0002,-0.0116,0.0036,-0.1098,0
12241484,0.9999,-0.0101,0.0024,0.0002,0.0051,0.0129,-0.1108,0
12241651,0.9999,-0.0101,0.0024,0.0002,0.0115,-0.0092,-0.0984,0
12241817,0.9999,-0.0101,0.0024,0.0002,0.0111,-0.0099,-0.0742,0
12241984,0.9999,-0.0101,0.0024,0.0002,-0.0097,0.0028,-0.1204,0
12242151,0.9999,-0.0101,0.0024,0.0002,-0.0005,0.0134,-0.1024,0
12242317,0.9999,-0.0101,0.0024,0.0002,-0.0108,0.0011,-0.1117,0
12242484,0.9999,-0.0101,0.0024,0.0002,-0.0105,0.0102,-0.1269,0
12242651,0.9999,-0.0101,0.0024,0.0002,-0.0143,0.0057,-0.0949,0
12242817,0.9999,-0.0101,0.0024,0.0002,-0.0075,-0.0124,-0.1196,0
12242984,0.9999,-0.0101,0.0024,0.0002,0.0054,0.0002,-0.0882,0
12243151,0.9999,-0.0101,0.0024,0.0002,0.0005,0.0041,-0.0894,0
12243317,0.9999,-0.0101,0.0024,0.0002,-0.0091,0.0308,-0.133,0
12243484,0.9999,-0.0101,0.0024,0.0002,-0.0164,-0.0018,-0.1251,0
12243651,0.9999,-0.0101,0.0024,0.0002,-0.017,-0.0148,-0.1146,0
12243817,0.9999,-0.0101,0.0024,0.0002,0.0024,-0.0175,-0.0958,0
12243984,0.9999,-0.0101,0.0024,0.0002,-0.012,-0.0062,-0.099,0
12244151,0.9999,-0.0101,0.0024,0.0002,0.0182,-0.0096,-0.099,0
12244317,0.9999,-0.0101,0.0024,0.0002,0.0116,-0.0101,-0.1011,0
12244484,0.9999,-0.0101,0.0024,0.0002,0.011,0.0008,-0.0906,0
12244651,0.9999,-0.0101,0.0024,0.0002,-0.005,0.0019,-0.1062,0
12244817,0.9999,-0.0101,0.0024,0.0002,-0.0079,-0.007,-0.1035,0
12244984,0.9999,-0.0101,0.0024,0.0002,-0.0139,-0.014,-0.1045,0
12245151,0.9999,-0.0101,0.0024,0.0002,0.0038,-0.015,-0.1268,0
12245317,0.9999,-0.0101,0.0024,0.0002,0.0038,-0.0102,-0.1163,0
12245484,0.9999,-0.0101,0.0024,0.0002,-0.0058,0.0248,-0.1127,0
12245651,0.9999,-0.0101,0.0024,0.0002,-0.001,0.0032,-0.092,0
12245817,0.9999,-0.0101,0.0024,0.0002,0.0004,0.0029,-0.0823,0
12245984,0.9999,-0.0101,0.0024,0.0002,-0.0088,-0.008,-0.106,0
12246151,0.9999,-0.0101,0.0024,0.0002,-0.0087,-0.0088,-0.1173,0
12246317,0.9999,-0.0101,0.0024,0.0002,-0.0028,-0.0016,-0.1167,0
12246484,0.9999,-0.0102,0.0024,0.0002,-0.0023,0.0077,-0.0926,0
12246651,0.9999,-0.0102,0.0024,0.0002,0.0076,0.0121,-0.0874,0
12246817,0.9999,-0.0102,0.0024,0.0002,-0.0049,0.0021,-0.1086,0
12246984,0.9999,-0.0102,0.0024,0.0002,-0.0036,-0.0017,-0.0955,0
12247151,0.9999,-0.0102,0.0024,0.0002,0.001,-0.02,-0.1108,0
12247317,0.9999,-0.0102,0.0024,0.0002,0.0085,-0.0091,-0.0995,0
12247484,0.9999,-0.0102,0.0024,0.0002,0.0087,0.0103,-0.1039,0
12247651,0.9999,-0.0102,0.0024,0.0002,-0.0204,0.0078,-0.099,0
12247817,0.9999,-0.0102,0.0024,0.0002,-0.0108,-0.0014,-0.0911,0
12247984,0.9999,-0.0102,0.0024,0.0002,-0.0067,-0.0105,-0.1218,0
12248151,0.9999,-0.0102,0.0024,0.0002,-0.0141,-0.0052,-0.0956,0
12248317,0.9999,-0.0102,0.0024,0.0002,-0.0013,-0.0074,-0.1065,0
12248484,0.9999,-0.0102,0.0024,0.0002,0.0099,-0.0118,-0.1149,0
12248651,0.9999,-0.0102,0.0024,0.0002,0.0003,0.012,-0.1023,0
12248817,0.9999,-0.0102,0.0024,0.0002,0.0055,0.0198,-0.1053,0
12248984,0.9999,-0.0102,0.0024,0.0002,0.0048,0.0044,-0.1077,0
12249151,0.9999,-0.0102,0.0024,0.0002,0.0024,-0.0053,-0.1056,0
12249317,0.9999,-0.0102,0.0024,0.0002,-0.0039,0.0037,-0.0985,0
12249484,0.9999,-0.0102,0.0024,0.0002,-0.0053,0.0101,-0.0919,0
12249651,0.9999,-0.0102,0.0024,0.0002,-0.0166,0.0158,-0.0931,0
12249817,0.9999,-0.0102,0.0024,0.0002,0.0066,-0.0023,-0.1042,0
12249984,0.9999,-0.0102,0.0024,0.0002,0.0012,0.0075,-0.1054,0
12250151,0.9999,-0.0102,0.0024,0.0002,-0.0012,0.0077,-0.0975,0
12250317,0.9999,-0.0102,0.0024,0.0002,0.0026,-0.0006,-0.0936,0
12250484,0.9999,-0.0102,0.0024,0.0002,-0.0069,-0.009,-0.1143,0
12250651,0.9999,-0.0102,0.0024,0.0002,-0.0152,0.0144,-0.1117,0
12250817,0.9999,-0.0102,0.0024,0.0002,0.0015,0.0055,-0.1105,0
12250984,0.9999,-0.0102,0.0024,0.0002,-0.0063,0.0057,-0.0988,0
12251151,0.9999,-0.0102,0.0024,0.0002,-0.0067,-0.0073,-0.1087,0
12251317,0.9999,-0.0102,0.0024,0.0002,0.0052,-0.0113,-0.1072,0
12251484,0.9999,-0.0102,0.0024,0.0002,0.0002,-0.005,-0.1173,0
12251651,0.9999,-0.0102,0.0024,0.0002,-0.0036,-0.0013,-0.1055,0
12251817,0.9999,-0.0102,0.0024,0.0002,-0.008,0.009,-0.0891,0
12251984,0.9999,-0.0102,0.0024,0.0002,-0.0034,-0.0095,-0.0954,0
12252151,0.9999,-0.0102,0.0024,0.0002,0.0003,-0.0045,-0.0978,0
12252317,0.9999,-0.0102,0.0024,0.0002,-0.0061,0.0101,-0.0974,0
12252484,0.9999,-0.0102,0.0024,0.0002,0.0067,-0.003,-0.0982,0
12252651,0.9999,-0.0102,0.0024,0.0002,0.0045,-0.0033,-0.0982,0
12252817,0.9999,-0.0102,0.0024,0.0002,-0.0039,0.0089,-0.1104,0
12252984,0.9999,-0.0102,0.0024,0.0002,-0.0093,0.0198,-0.1106,0
12253151,0.9999,-0.0102,0.0024,0.0002,-0.0092,0.0095,-0.085,0
12253317,0.9999,-0.0102,0.0024,0.0002,-0.0137,-0.0006,-0.1152,0
12253484,0.9999,-0.0102,0.0024,0.0002,-0.0066,-0.0109,-0.1001,0
12253651,0.9999,-0.0102,0.0024,0.0002,0.0092,0.0023,-0.1054,0
12253817,0.9999,-0.0102,0.0024,0.0002,0.0005,0.0084,-0.1067,0
12253984,0.9999,-0.0102,0.0024,0.0002,-0.009,0.0084,-0.0934,0
12254151,0.9999,-0.0102,0.0024,0.0002,-0.0098,-0.0024,-0.0985,0
12254317,0.9999,-0.0102,0.0024,0.0002,-0.0092,-0.0102,-0.1073,0
12254484,0.9999,-0.0102,0.0024,0.0002,-0.006,-0.0092,-0.0868,0
12254651,0.9999,-0.0102,0.0024,0.0002,0.0111,-0.0117,-0.0999,0
12254817,0.9999,-0.0102,0.0024,0.0002,0.0032,0.0018,-0.1096,0
12254984,0.9999,-0.0102,0.0024,0.0002,-0.0066,-0.0055,-0.1028,0
12255151,0.9999,-0.0102,0.0024,0.0002,-0.0005,-0.0066,-0.0942,0
12255317,0.9999,-0.0102,0.0024,0.0002,-0.0169,0.0103,-0.1155,0
12255484,0.9999,-0.0102,0.0024,0.0002,-0.0125,-0.0081,-0.074,0
12255651,0.9999,-0.0102,0.0024,0.0002,0.001,0.0003,-0.096,0
12255818,0.9999,-0.0102,0.0024,0.0002,-0.0023,-0.0038,-0.0819,0
12255984,0.9999,-0.0102,0.0024,0.0002,-0.0016,0.0011,-0.1028,0
12256151,0.9999,-0.0102,0.0024,0.0002,-0.0009,-0.0096,-0.1099,0
12256318,0.9999,-0.0102,0.0024,0.0002,-0.0057,-0.0075,-0.1078,0
12256484,0.9999,-0.0102,0.0024,0.0002,0.0012,-0.0119,-0.1111,0
12256651,0.9999,-0.0102,0.0024,0.0002,-0.0048,-0.017,-0.1101,0
12256818,0.9999,-0.0102,0.0024,0.0002,0.0113,-0.0096,-0.0982,0
12256984,0.9999,-0.0102,0.0024,0.0002,-0.0168,-0.004,-0.091,0
12257151,0.9999,-0.0102,0.0024,0.0002,-0.0092,0.0012,-0.1068,0
12257318,0.9999,-0.0102,0.0024,0.0002,-0.0064,0.0088,-0.0982,0
12257484,0.9999,-0.0102,0.0024,0.0002,-0.0048,-0.0133,-0.1001,0
12257651,0.9999,-0.0102,0.0024,0.0002,0.0007,-0.0095,-0.0793,0
12257818,0.9999,-0.0102,0.0024,0.0002,-0.0048,-0.0118,-0.1007,0
12257984,0.9999,-0.0102,0.0024,0.0002,0.0018,0.0153,-0.0741,0
12258151,0.9999,-0.0102,0.0024,0.0002,0.0033,-0.0013,-0.0736,0
12258318,0.9999,-0.0102,0.0024,0.0002,-0.0059,-0.0061,-0.094,0
12258484,0.9999,-0.0102,0.0024,0.0002,0.0066,-0.0056,-0.071,0
12258651,0.9999,-0.0102,0.0024,0.0002,-0.0111,0.011,-0.0997,0
12258818,0.9999,-0.0102,0.0024,0.0002,-0.0027,0.0024,-0.1011,0
12258984,0.9999,-0.0102,0.0024,0.0002,-0.0164,0.0037,-0.1347,0
12259151,0.9999,-0.0102,0.0024,0.0002,-0.0055,0.0001,-0.0707,0
12259318,0.9999,-0.0102,0.0024,0.0002,-0.0099,0.0061,-0.1076,0
12259484,0.9999,-0.0102,0.0024,0.0002,0.0032,0.0093,-0.1066,0
12259651,0.9999,-0.0102,0.0024,0.0002,-0.0048,-0.0013,-0.1279,0
12259818,0.9999,-0.0102,0.0024,0.0002,-0.0145,0.0005,-0.1021,0
12259984,0.9999,-0.0102,0.0024,0.0002,0.005,-0.0078,-0.104,0
12260151,0.9999,-0.0102,0.0024,0.0002,-0.0035,0.004,-0.0985,0
12260318,0.9999,-0.0102,0.0024,0.0002,-0.001,0.0081,-0.1305,0
12260484,0.9999,-0.0102,0.0024,0.0002,0.0114,0.0193,-0.1072,0
12260651,0.9999,-0.0102,0.0024,0.0002,0.013,0.0126,-0.1138,0
12260818,0.9999,-0.0102,0.0024,0.0003,-0.0052,0.0036,-0.0973,0
12260984,0.9999,-0.0102,0.0024,0.0003,-0.0001,0.0079,-0.0974,0
12261151,0.9999,-0.0102,0.0024,0.0003,0.0124,-0.0095,-0.1123,0
12261318,0.9999,-0.0102,0.0024,0.0003,0.0124,0.0115,-0.0808,0
12261484,0.9999,-0.0102,0.0024,0.0003,0.0014,0.0033,-0.1017,0
12261651,0.9999,-0.0102,0.0024,0.0003,0.0051,0.0005,-0.0823,0
12261818,0.9999,-0.0102,0.0024,0.0003,-0.0036,0.004,-0.1089,0
12261984,0.9999,-0.0102,0.0024,0.0003,-0.0193,0.0053,-0.0979,0
12262151,0.9999,-0.0102,0.0024,0.0003,-0.0017,-0.0013,-0.1256,0
12262318,0.9999,-0.0102,0.0024,0.0003,-0.0071,-0.0127,-0.1093,0
12262484,0.9999,-0.0102,0.0024,0.0003,-0.0013,-0.003,-0.1212,0
12262651,0.9999,-0.0102,0.0024,0.0003,-0.0045,-0.0018,-0.1029,0
12262818,0.9999,-0.0102,0.0024,0.0003,-0.0027,0.01,-0.0936,0
12262984,0.9999,-0.0102,0.0024,0.0003,0.0042,0.0129,-0.1001,0
12263151,0.9999,-0.0102,0.0024,0.0003,0.0081,-0.0248,-0.1051,0
12263318,0.9999,-0.0102,0.0024,0.0003,-0.0085,-0.0006,-0.1131,0
12263484,0.9999,-0.0102,0.0024,0.0003,-0.0072,0.0028,-0.1086,0
12263651,0.9999,-0.0102,0.0023,0.0003,0.016,-0.0039,-0.1068,0
12263818,0.9999,-0.0102,0.0024,0.0003,0.0045,-0.0042,-0.1207,0
12263984,0.9999,-0.0102,0.0024,0.0003,-0.0028,0.0105,-0.1053,0
12264151,0.9999,-0.0102,0.0024,0.0003,0.0025,-0.001,-0.1003,0
12264318,0.9999,-0.0102,0.0024,0.0003,-0.0084,0.0011,-0.0929,0
12264484,0.9999,-0.0102,0.0024,0.0003,-0.0019,0.0025,-0.1064,0
12264651,0.9999,-0.0102,0.0024,0.0003,-0.0076,-0.0046,-0.0775,0
12264818,0.9999,-0.0102,0.0024,0.0003,-0.0018,0.0004,-0.093,0
12264984,0.9999,-0.0102,0.0024,0.0003,0.0014,0.0002,-0.094,0
12265151,0.9999,-0.0102,0.0024,0.0003,-0.0066,0.0014,-0.0987,0
12265318,0.9999,-0.0102,0.0024,0.0003,-0.0064,-0.0019,-0.1089,0
12265484,0.9999,-0.0102,0.0024,0.0004,0.0054,0.0038,-0.1043,0
12265651,0.9999,-0.0102,0.0024,0.0004,-0.0039,0.0055,-0.1089,0
12265818,0.9999,-0.0102,0.0024,0.0004,0.0084,0.0122,-0.1146,0
12265984,0.9999,-0.0102,0.0024,0.0004,-0.005,-0.01,-0.0972,0
12266151,0.9999,-0.0102,0.0024,0.0004,-0.0073,-0.0023,-0.102,0
12266318,0.9999,-0.0102,0.0024,0.0004,-0.0093,0.0018,-0.1204,0
12266484,0.9999,-0.0102,0.0024,0.0004,-0.0134,0.0001,-0.1093,0
12266651,0.9999,-0.0102,0.0024,0.0004,-0.0037,-0.0009,-0.0918,0
12266818,0.9999,-0.0102,0.0023,0.0004,0.0002,-0.0006,-0.0673,0
12266984,0.9999,-0.0102,0.0023,0.0004,0.004,0.0077,-0.0915,0
12267151,0.9999,-0.0102,0.0024,0.0004,-0.0002,-0.0021,-0.0902,0
12267318,0.9999,-0.0102,0.0024,0.0004,-0.0076,0.0057,-0.1039,0
12267484,0.9999,-0.0102,0.0023,0.0004,0.001,-0.004,-0.0954,0
12267651,0.9999,-0.0102,0.0023,0.0004,-0.0072,0.013,-0.1203,0
12267818,0.9999,-0.0102,0.0023,0.0004,0.0072,0.0141,-0.1036,0
12267984,0.9999,-0.0102,0.0023,0.0004,0.0014,-0.0037,-0.1122,0
12268151,0.9999,-0.0102,0.0023,0.0004,-0.0012,0.0112,-0.098,0
12268318,0.9999,-0.0102,0.0023,0.0004,-0.0056,-0.0125,-0.1078,0
12268484,0.9999,-0.0102,0.0023,0.0004,0.0109,-0.0001,-0.1091,0
12268651,0.9999,-0.0102,0.0023,0.0004,0.0156,-0.0028,-0.1001,0
12268818,0.9999,-0.0102,0.0023,0.0004,-0.0096,0.0031,-0.0809,0
12268984,0.9999,-0.0102,0.0023,0.0004,0.0034,0.0066,-0.0936,0
12269151,0.9999,-0.0102,0.0023,0.0004,0.0103,0.0033,-0.0971,0
12269318,0.9999,-0.0102,0.0023,0.0004,-0.0121,0.0131,-0.0969,0
12269484,0.9999,-0.0102,0.0023,0.0004,0.0012,0.0133,-0.1063,0
12269651,0.9999,-0.0102,0.0023,0.0004,-0.0044,-0.0038,-0.0952,0
