SampleTimeFine,Quat_W,Quat_X,Quat_Y,Quat_Z,FreeAcc_X,FreeAcc_Y,FreeAcc_Z,Status
7916313,0.9979,-0.003,0.0044,0.0648,-0.0036,0.0056,-0.0023,0
7916480,0.9979,-0.003,0.0047,0.0647,0.0191,-0.0131,0.0229,0
7916647,0.9979,-0.003,0.0048,0.0644,0.0152,-0.0152,0.0114,0
7916813,0.9979,-0.0031,0.005,0.0644,0.0104,-0.0128,-0.0118,0
7916980,0.9979,-0.0032,0.0051,0.0643,0.0081,0.0006,-0.0038,0
7917147,0.9979,-0.0032,0.0053,0.0643,0.0241,0.0006,-0.0155,0
7917313,0.9979,-0.0032,0.0055,0.0641,0.0203,0.0008,-0.0065,0
7917480,0.9979,-0.0032,0.0057,0.0641,0.0244,0.0028,-0.001,0
7917647,0.9979,-0.0031,0.0059,0.0641,0.0275,0.0058,-0.0135,0
7917813,0.9979,-0.0031,0.006,0.0639,0.0312,-0.0118,-0.006,0
7917980,0.9979,-0.0031,0.0062,0.0638,0.0238,-0.0031,0,0
7918147,0.9979,-0.0031,0.0064,0.0638,0.0452,-0.006,-0.0053,0
7918313,0.9979,-0.003,0.0066,0.0637,0.0445,0.0078,0.0149,0
7918480,0.9979,-0.003,0.0067,0.0637,0.0355,-0.0024,0.0055,0
7918647,0.9979,-0.003,0.0069,0.0637,0.0553,-0.0134,0.0148,0
7918813,0.9979,-0.003,0.0071,0.0636,0.0639,0.0027,-0.0215,0
7918980,0.9979,-0.003,0.0073,0.0635,0.0486,-0.0024,0.0068,0
7919147,0.9979,-0.0029,0.0075,0.0636,0.061,-0.0171,-0.0093,0
7919313,0.9979,-0.0029,0.0076,0.0635,0.0729,-0.0125,-0.0031,0
7919480,0.9979,-0.0029,0.0078,0.0635,0.075,-0.0035,0.0021,0
7919647,0.998,-0.0029,0.008,0.0634,0.0785,0.0029,0.0058,0
7919813,0.998,-0.0028,0.0082,0.0633,0.0692,-0.0058,0.0098,0
7919980,0.998,-0.0028,0.0084,0.0632,0.0813,-0.0188,-0.0146,0
7920147,0.998,-0.0028,0.0085,0.0631,0.0839,-0.0161,-0.0085,0
7920313,0.998,-0.0028,0.0087,0.063,0.0825,-0.0087,0.0108,0
7920480,0.998,-0.0027,0.0089,0.0629,0.0937,-0.0166,0.007,0
7920647,0.998,-0.0027,0.0091,0.0628,0.1028,0.0058,0.0183,0
7920813,0.998,-0.0027,0.0093,0.0627,0.1043,-0.017,0.0158,0
7920980,0.998,-0.0027,0.0094,0.0627,0.1045,-0.0164,-0.0049,0
7921147,0.998,-0.0026,0.0096,0.0626,0.1102,-0.0077,-0.0238,0
7921313,0.998,-0.0026,0.0098,0.0625,0.106,-0.0083,0.0006,0
7921480,0.998,-0.0026,0.01,0.0625,0.1045,-0.0088,-0.0249,0
7921647,0.998,-0.0026,0.0101,0.0624,0.1202,-0.0135,-0.0094,0
7921813,0.998,-0.0026,0.0103,0.0624,0.1187,-0.0181,-0.0097,0
7921980,0.998,-0.0025,0.0105,0.0623,0.129,-0.0117,-0.0103,0
7922147,0.998,-0.0025,0.0107,0.0623,0.1164,-0.0086,-0.0018,0
7922313,0.998,-0.0025,0.0108,0.0622,0.1236,-0.0038,-0.0006,0
7922480,0.998,-0.0025,0.011,0.0621,0.1278,-0.0116,-0.0135,0
7922647,0.998,-0.0025,0.0112,0.0621,0.1287,-0.0035,-0.0198,0
7922813,0.998,-0.0024,0.0114,0.062,0.1367,-0.0053,-0.0025,0
7922980,0.998,-0.0024,0.0115,0.062,0.1371,-0.0139,-0.0193,0
7923147,0.998,-0.0024,0.0117,0.0619,0.1385,-0.0125,-0.0076,0
7923313,0.998,-0.0024,0.0119,0.0619,0.165,-0.0083,0.0107,0
7923480,0.998,-0.0024,0.0121,0.0618,0.1504,-0.0046,-0.0011,0
7923647,0.998,-0.0023,0.0123,0.0618,0.1718,-0.0072,-0.0006,0
7923813,0.998,-0.0023,0.0125,0.0617,0.1549,0.001,0.0103,0
7923980,0.998,-0.0023,0.0126,0.0617,0.1527,-0.0094,0.0134,0
7924147,0.998,-0.0022,0.0128,0.0616,0.1558,-0.0104,-0.0087,0
7924313,0.998,-0.0022,0.013,0.0615,0.1765,-0.0158,-0.0117,0
7924480,0.998,-0.0022,0.0132,0.0615,0.1796,-0.0197,-0.0128,0
7924647,0.998,-0.0022,0.0133,0.0614,0.1775,-0.0181,0.0041,0
7924813,0.998,-0.0021,0.0135,0.0614,0.1714,0.0002,-0.0082,0
7924980,0.998,-0.0021,0.0136,0.0614,0.1853,-0.0074,0.0101,0
7925147,0.998,-0.0021,0.0138,0.0613,0.1837,-0.0191,0.0059,0
7925313,0.998,-0.0021,0.014,0.0613,0.1834,-0.0133,-0.0086,0
7925480,0.998,-0.002,0.0141,0.0612,0.2052,-0.0167,0.0192,0
7925647,0.998,-0.002,0.0143,0.0612,0.1908,0.0026,-0.0131,0
7925813,0.998,-0.002,0.0145,0.0611,0.1936,-0.0123,-0.0015,0
7925980,0.998,-0.002,0.0146,0.0611,0.2072,-0.0141,0.0146,0
7926147,0.998,-0.0019,0.0148,0.0611,0.1934,-0.0172,-0.0038,0
7926313,0.998,-0.0019,0.015,0.061,0.2181,0.0018,-0.0078,0
7926480,0.998,-0.0019,0.0151,0.061,0.219,-0.012,-0.0087,0
7926647,0.998,-0.0019,0.0153,0.0609,0.2238,-0.0266,-0.0308,0
7926813,0.998,-0.0019,0.0155,0.0609,0.2112,-0.0142,-0.0056,0
7926980,0.998,-0.0018,0.0156,0.0609,0.2209,-0.0084,-0.0222,0
7927147,0.998,-0.0018,0.0158,0.0608,0.2263,-0.0113,-0.0135,0
7927313,0.998,-0.0018,0.0159,0.0608,0.2264,-0.0247,-0.0007,0
7927480,0.998,-0.0018,0.0161,0.0607,0.2428,-0.0148,0.0246,0
7927647,0.998,-0.0017,0.0163,0.0607,0.2276,-0.025,0.005,0
7927813,0.998,-0.0017,0.0164,0.0606,0.2348,-0.0164,-0.0023,0
7927980,0.998,-0.0017,0.0166,0.0606,0.239,-0.0125,0.0002,0
7928147,0.998,-0.0017,0.0167,0.0606,0.2504,-0.0317,0.0369,0
7928313,0.998,-0.0016,0.0169,0.0605,0.2649,-0.0175,0.0143,0
7928480,0.998,-0.0016,0.017,0.0605,0.2601,-0.0169,0.0034,0
7928647,0.998,-0.0016,0.0172,0.0604,0.2389,-0.0207,0.009,0
7928813,0.998,-0.0016,0.0173,0.0604,0.265,-0.0172,0.0061,0
7928980,0.998,-0.0015,0.0175,0.0603,0.2543,-0.0177,-0.0136,0
7929147,0.998,-0.0015,0.0176,0.0603,0.2651,-0.0161,-0.0031,0
7929313,0.998,-0.0015,0.0178,0.0602,0.2734,-0.0293,0.0068,0
7929480,0.998,-0.0015,0.0179,0.0602,0.2746,-0.0065,-0.0066,0
7929647,0.998,-0.0015,0.0181,0.0601,0.2827,-0.0173,0.0104,0
7929814,0.998,-0.0014,0.0182,0.0601,0.2736,-0.0196,-0.0191,0
7929980,0.998,-0.0014,0.0183,0.0601,0.2667,-0.0269,-0.0036,0
7930147,0.998,-0.0014,0.0185,0.06,0.2856,-0.0291,0.002,0
7930314,0.998,-0.0014,0.0186,0.06,0.2851,-0.0243,-0.0023,0
7930480,0.998,-0.0013,0.0187,0.0599,0.2969,-0.0197,0.0097,0
7930647,0.998,-0.0013,0.0189,0.0599,0.2835,-0.0217,-0.0035,0
7930814,0.998,-0.0013,0.019,0.0598,0.298,-0.0204,-0.0013,0
7930980,0.998,-0.0013,0.0192,0.0598,0.3024,-0.0227,-0.0155,0
7931147,0.998,-0.0012,0.0193,0.0597,0.2956,-0.0226,-0.0051,0
7931314,0.998,-0.0012,0.0195,0.0596,0.2986,-0.0282,0.0046,0
7931480,0.998,-0.0012,0.0196,0.0596,0.3007,-0.0399,0.0122,0
7931647,0.998,-0.0012,0.0197,0.0595,0.2994,-0.0159,0.0065,0
7931814,0.998,-0.0012,0.0198,0.0595,0.3075,-0.0364,0.0131,0
7931980,0.998,-0.0011,0.02,0.0594,0.3167,-0.018,-0.0036,0
7932147,0.998,-0.0011,0.0201,0.0594,0.308,-0.0311,-0.0019,0
7932314,0.998,-0.0011,0.0202,0.0593,0.3003,-0.0426,0.01,0
7932480,0.998,-0.0011,0.0203,0.0593,0.325,-0.0321,0.0021,0
7932647,0.998,-0.001,0.0204,0.0592,0.3169,-0.0255,0.0027,0
7932814,0.998,-0.001,0.0205,0.0592,0.3268,-0.0215,0.002,0
7932980,0.998,-0.001,0.0206,0.0591,0.3271,-0.0127,0.0256,0
7933147,0.998,-0.001,0.0208,0.0591,0.3147,-0.0138,-0.0164,0
7933314,0.998,-0.001,0.0209,0.059,0.3297,-0.0216,0.0029,0
7933480,0.998,-0.0009,0.021,0.0589,0.3351,-0.029,-0.0094,0
7933647,0.998,-0.0009,0.0211,0.0589,0.3206,-0.0409,-0.0008,0
7933814,0.998,-0.0009,0.0212,0.0588,0.346,-0.0253,0.0059,0
7933980,0.998,-0.0009,0.0213,0.0587,0.3312,-0.0193,-0.0191,0
7934147,0.998,-0.0009,0.0214,0.0587,0.3306,-0.0149,0.0024,0
7934314,0.998,-0.0008,0.0215,0.0586,0.3372,-0.0226,0.0071,0
7934480,0.9981,-0.0008,0.0216,0.0585,0.3356,-0.045,0.0124,0
7934647,0.9981,-0.0008,0.0217,0.0585,0.3411,-0.0532,-0.0157,0
7934814,0.9981,-0.0008,0.0218,0.0584,0.3314,-0.0352,-0.0096,0
7934980,0.9981,-0.0008,0.0219,0.0583,0.3383,-0.0231,-0.0105,0
7935147,0.9981,-0.0008,0.022,0.0583,0.3512,-0.0194,-0.0078,0
7935314,0.9981,-0.0008,0.022,0.0582,0.3459,-0.0238,0.0163,0
7935480,0.9981,-0.0007,0.0221,0.0581,0.3442,-0.03,0.0189,0
7935647,0.9981,-0.0007,0.0222,0.0581,0.3693,-0.0327,-0.0019,0
7935814,0.9981,-0.0007,0.0223,0.058,0.3516,-0.0415,0.001,0
7935980,0.9986,-0.0031,0.004,0.0517,0.0052,-0.0032,-0.0096,0
7936147,0.9986,-0.0031,0.004,0.0518,-0.0179,-0.0019,0.0043,0
7936314,0.9986,-0.0032,0.004,0.0519,-0.0059,0.0004,-0.0004,0
7936480,0.9986,-0.0031,0.004,0.052,-0.0038,0.0003,0.007,0
7936647,0.9986,-0.0031,0.004,0.0521,0.0091,-0.0006,0.0235,0
7936814,0.9986,-0.0031,0.004,0.0521,-0.0004,0.014,0.0132,0
7936980,0.9986,-0.0031,0.004,0.0522,0.0016,-0.0037,-0.0081,0
7937147,0.9986,-0.0031,0.004,0.0523,-0.0013,-0.0076,0.0009,0
7937314,0.9986,-0.0031,0.004,0.0524,-0.0053,-0.0036,0.0048,0
7937480,0.9986,-0.0031,0.004,0.0524,0.0047,-0.0025,-0.0036,0
7937647,0.9986,-0.0031,0.004,0.0525,0.0043,-0.0041,0.0139,0
7937814,0.9986,-0.0031,0.004,0.0526,-0.0048,0.0115,0.0272,0
7937980,0.9986,-0.0031,0.004,0.0527,0.0124,-0.0108,0.004,0
7938147,0.9986,-0.0031,0.004,0.0527,-0.0028,-0.0083,-0.0147,0
7938314,0.9986,-0.0031,0.004,0.0528,-0.0053,0.0064,0.0095,0
7938480,0.9986,-0.0031,0.004,0.0529,-0.0076,-0.0113,-0.0126,0
7938647,0.9986,-0.0031,0.004,0.0529,0.0043,-0.0086,0.0041,0
7938814,0.9986,-0.0031,0.004,0.053,-0.0057,-0.0082,0.0227,0
7938980,0.9986,-0.0031,0.004,0.0531,0.0017,0.0004,-0.0068,0
7939147,0.9986,-0.0031,0.004,0.0531,-0.0006,-0.005,0.0391,0
7939314,0.9986,-0.0031,0.004,0.0532,-0.0004,-0.0089,-0.0024,0
7939480,0.9986,-0.0031,0.004,0.0533,0.0009,0.0071,0.0057,0
7939647,0.9986,-0.0031,0.004,0.0533,0.0054,-0.0046,0.0171,0
7939814,0.9986,-0.0031,0.004,0.0534,0.0087,-0.013,-0.0008,0
7939980,0.9986,-0.0031,0.004,0.0535,-0.0149,-0.0095,-0.0012,0
7940147,0.9986,-0.0031,0.004,0.0535,0.0018,-0.0105,0.0177,0
7940314,0.9985,-0.0031,0.004,0.0536,-0.0099,-0.0024,-0.001,0
7940480,0.9985,-0.0031,0.004,0.0537,0.0022,-0.002,0.0011,0
7940647,0.9985,-0.0031,0.0039,0.0537,-0.0179,0.015,-0.0059,0
7940814,0.9985,-0.0031,0.0039,0.0538,0.0096,0.0103,0.018,0
7940980,0.9985,-0.0031,0.0039,0.0539,0.0162,-0.0089,0.0294,0
7941147,0.9985,-0.0031,0.0039,0.0539,0.0011,-0.0101,0.0323,0
7941314,0.9985,-0.0031,0.0039,0.054,-0.0156,-0.0124,-0.036,0
7941480,0.9985,-0.0031,0.0039,0.054,-0.0063,-0.0115,-0.0054,0
7941647,0.9985,-0.0031,0.0039,0.0541,0.0071,-0.007,-0.007,0
7941814,0.9985,-0.0031,0.0039,0.0541,0.0057,0.0102,0.0084,0
7941980,0.9985,-0.0031,0.0039,0.0542,0.015,-0.0018,0.034,0
7942147,0.9985,-0.0031,0.0039,0.0542,0.0188,-0.0114,0.0163,0
7942314,0.9985,-0.0031,0.0039,0.0543,0.0059,-0.0072,0.013,0
7942480,0.9985,-0.0031,0.0039,0.0543,-0.0222,-0.0097,0.0039,0
7942647,0.9985,-0.0031,0.0039,0.0544,-0.0129,-0.0142,-0.0177,0
7942814,0.9985,-0.0031,0.0039,0.0544,-0.0125,-0.0013,0.0092,0
7942980,0.9985,-0.0031,0.0039,0.0545,-0.0057,0.0031,0.0065,0
7943147,0.9985,-0.0031,0.0039,0.0545,0.0127,-0.0156,-0.0239,0
7943314,0.9985,-0.0031,0.0039,0.0546,0.0064,0.0004,0.0115,0
7943480,0.9985,-0.0031,0.0039,0.0546,-0.0049,-0.0177,0.0137,0
7943647,0.9985,-0.0031,0.0039,0.0547,-0.013,0.0004,-0.0107,0
7943814,0.9985,-0.0031,0.0039,0.0547,-0.0156,-0.009,0.0082,0
7943980,0.9985,-0.0031,0.0039,0.0548,0.0008,0.0107,0.0055,0
7944147,0.9985,-0.0031,0.0039,0.0548,-0.0064,-0.0108,0.0283,0
7944314,0.9985,-0.0031,0.0039,0.0549,0.0006,-0.0079,0.0324,0
7944480,0.9985,-0.0031,0.0039,0.0549,0.0008,-0.005,0.0127,0
7944647,0.9985,-0.0031,0.0039,0.055,0.0075,0.0008,0.0072,0
7944814,0.9985,-0.0031,0.0039,0.055,-0.0097,-0.0053,-0.0127,0
7944980,0.9985,-0.0031,0.0039,0.0551,-0.005,-0.0045,-0.001,0
7945147,0.9985,-0.0031,0.0039,0.0551,0.0008,-0.0041,-0.02,0
7945314,0.9985,-0.0031,0.0039,0.0552,0.0083,-0.0078,0.0054,0
7945480,0.9985,-0.0031,0.0039,0.0552,0.0116,-0.0042,0.0193,0
7945647,0.9985,-0.0031,0.0039,0.0552,0.0067,0.008,0.024,0
7945814,0.9985,-0.0031,0.0039,0.0553,-0.0115,-0.0059,0.0127,0
7945980,0.9985,-0.0031,0.0039,0.0553,-0.0182,-0.0059,0.012,0
7946147,0.9985,-0.0031,0.0039,0.0553,-0.0064,-0.0217,-0.0131,0
7946314,0.9985,-0.0031,0.0039,0.0554,-0.0114,-0.0011,-0.0039,0
7946481,0.9985,-0.0031,0.0039,0.0554,0.006,-0.0064,0.0263,0
7946647,0.9984,-0.0031,0.0039,0.0554,-0.0028,0.0069,0.0077,0
7946814,0.9984,-0.0031,0.0039,0.0555,-0.0072,-0.0008,0.0219,0
7946981,0.9984,-0.0031,0.0039,0.0555,-0.0187,0.0021,0.0109,0
7947147,0.9984,-0.0031,0.0039,0.0556,-0.0155,-0.0086,-0.0044,0
7947314,0.9984,-0.0031,0.0039,0.0556,-0.0111,-0.0203,0.0143,0
7947481,0.9984,-0.0031,0.0039,0.0557,-0.0016,-0.0099,0.0159,0
7947647,0.9984,-0.0031,0.0039,0.0557,0.007,0.003,0.0272,0
7947814,0.9984,-0.0031,0.0039,0.0558,-0.0014,0.0176,0.0387,0
7947981,0.9984,-0.0031,0.0039,0.0558,-0.0074,-0.0115,0.0045,0
7948147,0.9984,-0.0031,0.0039,0.0558,-0.007,-0.0002,-0.0044,0
7948314,0.9984,-0.0031,0.0038,0.0559,0.0048,-0.0088,0.0335,0
7948481,0.9984,-0.0031,0.0038,0.0559,0.0036,-0.0167,0.0054,0
7948647,0.9984,-0.0031,0.0038,0.0559,-0.004,-0.0211,-0.0147,0
7948814,0.9984,-0.0031,0.0038,0.056,0.0086,-0.0154,0.0412,0
7948981,0.9984,-0.0031,0.0038,0.056,-0.0058,-0.006,-0.004,0
7949147,0.9984,-0.0031,0.0038,0.056,-0.0239,0.0067,-0.0037,0
7949314,0.9984,-0.0031,0.0038,0.0561,0.002,0.0161,0.0489,0
7949481,0.9984,-0.0031,0.0038,0.0561,0.0124,0.0072,-0.0057,0
7949647,0.9984,-0.0031,0.0038,0.0561,0.0076,-0.0118,0.0191,0
7949814,0.9984,-0.0031,0.0038,0.0562,-0.0058,-0.0181,0.0393,0
7949981,0.9984,-0.0031,0.0038,0.0562,-0.0157,-0.0061,-0.0391,0
7950147,0.9984,-0.0031,0.0038,0.0562,-0.0323,0.0014,0.0014,0
7950314,0.9984,-0.0031,0.0038,0.0563,-0.015,0.0098,-0.0229,0
7950481,0.9984,-0.0031,0.0038,0.0563,0.0032,0.0022,0.0093,0
7950647,0.9984,-0.0031,0.0038,0.0563,0.0115,-0.0257,0.0476,0
7950814,0.9984,-0.0031,0.0038,0.0563,0.0253,-0.0259,0.0195,0
7950981,0.9984,-0.0031,0.0038,0.0564,-0.0058,-0.0291,-0.0204,0
7951147,0.9984,-0.0031,0.0038,0.0564,-0.0235,-0.0025,0.0187,0
7951314,0.9984,-0.0031,0.0038,0.0564,-0.0218,0.0193,-0.0134,0
7951481,0.9984,-0.0031,0.0038,0.0565,-0.0077,0.0085,0.0092,0
7951647,0.9984,-0.0031,0.0038,0.0565,0.0012,-0.008,0.0303,0
7951814,0.9984,-0.0031,0.0038,0.0565,0.0149,-0.0264,0.0204,0
7951981,0.9984,-0.0031,0.0038,0.0566,-0.0021,-0.0257,-0.0021,0
7952147,0.9984,-0.0031,0.0038,0.0566,-0.0057,-0.0055,0.0265,0
7952314,0.9984,-0.0031,0.0038,0.0566,-0.0077,-0.0058,-0.0062,0
7952481,0.9984,-0.0031,0.0038,0.0567,-0.0238,0.0035,-0.0144,0
7952647,0.9984,-0.0031,0.0038,0.0567,-0.0219,-0.0013,0.0177,0
7952814,0.9984,-0.0031,0.0038,0.0567,0.0085,-0.0255,-0.0043,0
7952981,0.9984,-0.0031,0.0038,0.0568,0.0147,-0.031,0.0184,0
7953147,0.9984,-0.0031,0.0038,0.0568,0.0092,-0.0144,0.0251,0
7953314,0.9984,-0.0031,0.0038,0.0568,-0.0059,0.0075,0.0009,0
7953481,0.9984,-0.0031,0.0038,0.0568,-0.0338,0.0053,0.0039,0
7953647,0.9984,-0.0031,0.0038,0.0569,-0.0048,-0.022,0.0233,0
7953814,0.9984,-0.0031,0.0038,0.0569,-0.0101,-0.0215,-0.0098,0
7953981,0.9984,-0.0031,0.0038,0.0569,0.0112,-0.0235,0.026,0
7954147,0.9984,-0.0031,0.0038,0.0569,0.0103,-0.0143,0.0059,0
7954314,0.9984,-0.0031,0.0038,0.0569,-0.0127,0.0024,0.004,0
7954481,0.9984,-0.0031,0.0038,0.057,-0.0157,0.0037,0.0064,0
7954647,0.9984,-0.0031,0.0038,0.057,-0.0172,0.0041,-0.0007,0
7954814,0.9984,-0.0031,0.0038,0.057,-0.0096,-0.0115,0.002,0
7954981,0.9984,-0.0031,0.0038,0.0571,-0.0071,-0.0185,0.0047,0
7955147,0.9984,-0.0031,0.0038,0.0571,0.0118,-0.0217,0.0181,0
7955314,0.9984,-0.0031,0.0038,0.0571,0.0045,-0.0095,0.0028,0
7955481,0.9984,-0.0031,0.0038,0.0571,-0.0129,0.0078,0.0028,0
7955647,0.9984,-0.0031,0.0038,0.0572,-0.0111,-0.0004,-0.012,0
7955814,0.9984,-0.0031,0.0038,0.0572,-0.0182,-0.0146,-0.0033,0
7955981,0.9983,-0.0032,0.004,0.0572,-0.0092,-0.0175,0.0109,0
7956147,0.9983,-0.0032,0.004,0.0572,-0.0083,-0.0132,-0.0096,0
7956314,0.9983,-0.0032,0.004,0.0573,0.0033,-0.011,0.0082,0
7956481,0.9983,-0.0032,0.004,0.0573,0.0095,0.0088,0.0045,0
7956647,0.9983,-0.0032,0.004,0.0573,0.0013,-0.0012,0.0208,0
7956814,0.9983,-0.0032,0.004,0.0573,-0.0096,-0.0045,0.0089,0
7956981,0.9983,-0.0032,0.004,0.0573,-0.0141,-0.017,-0.0031,0
7957147,0.9983,-0.0032,0.004,0.0574,-0.0107,-0.025,0.009,0
7957314,0.9983,-0.0032,0.004,0.0574,-0.0018,-0.0101,-0.0006,0
7957481,0.9983,-0.0032,0.004,0.0574,0.0069,0.0021,0.015,0
7957647,0.9983,-0.0032,0.004,0.0574,0.0147,-0.0012,0.0054,0
7957814,0.9983,-0.0032,0.004,0.0574,0.0042,-0.0086,0.0178,0
7957981,0.9983,-0.0032,0.004,0.0575,-0.0058,-0.0145,0,0
7958147,0.9983,-0.0032,0.004,0.0575,-0.0007,-0.0205,0.0164,0
7958314,0.9983,-0.0032,0.004,0.0575,-0.0029,-0.0065,0.0208,0
7958481,0.9983,-0.0032,0.004,0.0575,-0.0056,-0.0146,-0.0083,0
7958647,0.9983,-0.0032,0.004,0.0575,-0.0004,0.0147,-0.0122,0
7958814,0.9983,-0.0032,0.004,0.0576,-0.0041,0.0102,0.0221,0
7958981,0.9983,-0.0032,0.004,0.0576,-0.0086,-0.0098,0.0072,0
7959147,0.9983,-0.0032,0.004,0.0576,-0.0009,-0.0108,0.0012,0
7959314,0.9983,-0.0032,0.004,0.0576,-0.0143,-0.0189,0.0056,0
7959481,0.9983,-0.0032,0.004,0.0576,-0.0104,-0.0066,-0.0039,0
7959647,0.9983,-0.0032,0.004,0.0577,-0.0107,-0.001,0.0117,0
7959814,0.9983,-0.0032,0.004,0.0577,-0.0028,0.0188,0.0077,0
7959981,0.9983,-0.0032,0.004,0.0577,0.0042,0.0001,-0.0115,0
7960147,0.9983,-0.0032,0.004,0.0577,0.0152,-0.0118,0.0012,0
7960314,0.9983,-0.0032,0.004,0.0577,-0.0001,-0.0163,-0.0077,0
7960481,0.9983,-0.0032,0.004,0.0578,0.0071,-0.0219,0.0068,0
7960647,0.9983,-0.0032,0.004,0.0578,-0.0034,-0.0154,-0.0005,0
7960814,0.9983,-0.0032,0.004,0.0578,-0.0046,0.0034,0.0054,0
7960981,0.9983,-0.0032,0.004,0.0578,-0.0062,0.0051,-0.0084,0
7961147,0.9983,-0.0032,0.004,0.0578,-0.01,-0.0089,0.0314,0
7961314,0.9983,-0.0032,0.004,0.0579,0.0002,-0.024,0.0038,0
7961481,0.9983,-0.0032,0.004,0.0579,-0.0087,-0.0061,0.0183,0
7961647,0.9983,-0.0032,0.004,0.0579,-0.0035,-0.0081,0.0087,0
7961814,0.9983,-0.0032,0.004,0.0579,-0.0062,-0.0103,0.0099,0
7961981,0.9983,-0.0032,0.004,0.058,-0.0101,0.0037,0.0204,0
7962147,0.9983,-0.0032,0.004,0.058,0.0033,-0.0012,-0.0059,0
7962314,0.9983,-0.0032,0.004,0.058,0.0076,0.001,0.0281,0
7962481,0.9983,-0.0032,0.004,0.058,-0.0074,0.001,0.001,0
7962647,0.9983,-0.0032,0.004,0.058,-0.0061,-0.0032,-0.0047,0
7962814,0.9983,-0.0032,0.004,0.058,-0.0098,-0.0016,-0.0168,0
7962981,0.9983,-0.0032,0.004,0.0581,-0.0096,0.0062,-0.0194,0
7963148,0.9983,-0.0032,0.004,0.0581,-0.0055,0.0048,0.0003,0
7963314,0.9983,-0.0032,0.004,0.0581,-0.004,-0.0013,0.0017,0
7963481,0.9983,-0.0032,0.004,0.0581,-0.015,-0.0023,0.0145,0
7963648,0.9983,-0.0032,0.004,0.0581,-0.0097,-0.0089,0.0383,0
7963814,0.9983,-0.0032,0.004,0.0581,-0.0008,-0.0047,0.0124,0
7963981,0.9983,-0.0032,0.004,0.0582,-0.0201,-0.0169,0.0011,0
7964148,0.9983,-0.0032,0.004,0.0582,0.0024,-0.0041,0.0041,0
7964314,0.9983,-0.0032,0.004,0.0582,-0.0014,0.0046,0.02,0
7964481,0.9983,-0.0032,0.004,0.0582,0.0049,-0.0119,0.0044,0
7964648,0.9983,-0.0032,0.004,0.0582,-0.0126,0.0013,0.0008,0
7964814,0.9983,-0.0032,0.004,0.0582,-0.0115,-0.0113,0.0141,0
7964981,0.9983,-0.0032,0.004,0.0583,-0.0127,-0.0104,0.0229,0
7965148,0.9983,-0.0032,0.004,0.0583,-0.003,-0.0096,0.0086,0
7965314,0.9983,-0.0032,0.004,0.0583,-0.0073,0.0027,0.0256,0
7965481,0.9983,-0.0032,0.004,0.0583,-0.001,-0.003,0.0105,0
7965648,0.9983,-0.0032,0.004,0.0583,0.0132,-0.0011,0.0206,0
7965814,0.9983,-0.0032,0.004,0.0584,-0.0031,-0.0149,0.0126,0
7965981,0.9983,-0.0032,0.004,0.0584,-0.0194,-0.0135,0.0001,0
7966148,0.9983,-0.0032,0.004,0.0584,-0.0037,-0.007,-0.0164,0
7966314,0.9983,-0.0032,0.004,0.0584,-0.0126,-0.0069,-0.0077,0
7966481,0.9983,-0.0032,0.004,0.0584,-0.012,-0.017,0.0014,0
7966648,0.9983,-0.0032,0.004,0.0584,0.0099,-0.0125,0.0002,0
7966814,0.9983,-0.0032,0.004,0.0584,0.0044,0.0035,0.0215,0
7966981,0.9983,-0.0032,0.004,0.0584,-0.0009,0.0001,0.018,0
7967148,0.9983,-0.0032,0.004,0.0584,-0.0053,-0.0051,-0.0034,0
7967314,0.9983,-0.0032,0.004,0.0584,-0.0246,0.0004,-0.006,0
7967481,0.9983,-0.0032,0.004,0.0585,-0.0095,-0.0025,-0.0051,0
7967648,0.9983,-0.0032,0.004,0.0585,-0.0044,-0.0136,-0.0143,0
7967814,0.9983,-0.0032,0.004,0.0585,0.0032,-0.007,-0.0067,0
7967981,0.9983,-0.0033,0.004,0.0585,-0.0112,0.0008,0.0197,0
7968148,0.9983,-0.0032,0.004,0.0585,0.0106,0.0057,0.0286,0
7968314,0.9983,-0.0032,0.004,0.0585,-0.0051,0.0085,0.0147,0
7968481,0.9983,-0.0032,0.004,0.0586,-0.0062,-0.0058,0.0185,0
7968648,0.9983,-0.0032,0.004,0.0586,0.0025,-0.0235,0.0083,0
7968814,0.9983,-0.0032,0.004,0.0586,-0.0041,-0.0105,-0.0059,0
7968981,0.9983,-0.0032,0.0039,0.0586,0.0005,-0.0035,0.0014,0
7969148,0.9983,-0.0033,0.0039,0.0586,-0.0053,-0.002,0.0084,0
7969314,0.9983,-0.0033,0.0039,0.0586,0.012,0.0174,0.019,0
7969481,0.9983,-0.0033,0.004,0.0586,0.0093,0.0064,-0.0044,0
7969648,0.9983,-0.0032,0.0039,0.0586,-0.0143,-0.0029,0.0113,0
7969814,0.9983,-0.0033,0.0039,0.0586,-0.0104,-0.008,0.0103,0
7969981,0.9983,-0.0033,0.004,0.0587,0.0081,-0.0003,-0.0041,0
7970148,0.9983,-0.0033,0.0039,0.0587,0.0095,0.0143,0.0075,0
7970314,0.9983,-0.0033,0.004,0.0587,0.0091,0.0076,0.028,0
7970481,0.9983,-0.0033,0.004,0.0587,0.002,-0.0151,0.0071,0
7970648,0.9983,-0.0033,0.004,0.0587,0.0094,0.0024,-0.0121,0
7970814,0.9983,-0.0033,0.004,0.0587,-0.0034,-0.0077,0.0048,0
7970981,0.9983,-0.0033,0.004,0.0587,-0.0017,-0.0151,-0.0048,0
7971148,0.9983,-0.0033,0.004,0.0587,-0.0065,-0.0052,-0.0135,0
7971314,0.9983,-0.0033,0.004,0.0588,0.0003,0.0102,0.0078,0
7971481,0.9983,-0.0033,0.004,0.0588,0.0053,0.0073,0.006,0
7971648,0.9983,-0.0033,0.004,0.0588,0.0095,0.0047,-0.0003,0
7971814,0.9983,-0.0033,0.004,0.0588,0.0084,-0.0055,0.0144,0
7971981,0.9983,-0.0033,0.004,0.0588,-0.0091,-0.007,0.0025,0
7972148,0.9983,-0.0033,0.004,0.0588,-0.008,-0.0134,-0.013,0
7972314,0.9983,-0.0033,0.004,0.0589,-0.0138,-0.0069,0.0158,0
7972481,0.9983,-0.0033,0.004,0.0589,0.0008,-0.0069,0.0106,0
7972648,0.9983,-0.0033,0.004,0.0589,0.0054,0.0041,0.0108,0
7972814,0.9982,-0.0033,0.004,0.0589,0.0012,0.0004,0.0076,0
7972981,0.9982,-0.0033,0.004,0.0589,-0.0108,0.0006,-0.0162,0
7973148,0.9982,-0.0033,0.004,0.0589,-0.0112,-0.0122,-0.0015,0
7973314,0.9982,-0.0033,0.004,0.0589,0.0082,-0.0114,0.0192,0
7973481,0.9982,-0.0033,0.004,0.0589,-0.0016,0.0083,0.0124,0
7973648,0.9982,-0.0033,0.004,0.059,0.0193,-0.0037,0.0058,0
7973814,0.9982,-0.0033,0.0039,0.059,0.0004,-0.0056,0.0138,0
7973981,0.9982,-0.0033,0.0039,0.059,-0.0002,-0.0138,0.0047,0
7974148,0.9982,-0.0033,0.0039,0.059,-0.0064,-0.0198,0.0031,0
7974314,0.9982,-0.0033,0.0039,0.059,0.0006,-0.0034,0.0043,0
7974481,0.9982,-0.0033,0.0039,0.059,-0.0064,-0.016,-0.0056,0
7974648,0.9982,-0.0033,0.0039,0.0591,-0.0012,-0.0033,0.0122,0
7974814,0.9982,-0.0033,0.0039,0.0591,-0.005,0.0071,0.0106,0
7974981,0.9982,-0.0033,0.004,0.0591,-0.0047,-0.0005,-0.0086,0
7975148,0.9982,-0.0033,0.0039,0.0591,0.0018,-0.0151,-0.0189,0
7975314,0.9982,-0.0033,0.0039,0.0591,0.0104,-0.0112,-0.0074,0
7975481,0.9982,-0.0033,0.0039,0.0591,0.0064,-0.0078,0.0078,0
7975648,0.9982,-0.0033,0.0039,0.0592,0.0007,-0.0115,-0.004,0
7975814,0.9982,-0.0033,0.0039,0.0592,-0.0043,-0.0071,0.0107,0
7975981,0.9982,-0.0032,0.004,0.0591,-0.0138,-0.0077,-0.0085,0
7976148,0.9982,-0.0032,0.004,0.0592,-0.0031,-0.0031,0.0168,0
7976314,0.9982,-0.0032,0.004,0.0592,-0.0021,0.003,-0.0165,0
7976481,0.9982,-0.0032,0.004,0.0592,-0.0029,-0.0001,-0.0253,0
7976648,0.9982,-0.0032,0.004,0.0592,0.0034,0.0048,0.0058,0
7976814,0.9982,-0.0032,0.004,0.0592,-0.0034,-0.0094,-0.0052,0
7976981,0.9982,-0.0033,0.004,0.0592,-0.0026,0.0054,-0.0001,0
7977148,0.9982,-0.0033,0.004,0.0592,0.0155,-0.0064,0.0079,0
7977314,0.9982,-0.0032,0.004,0.0592,-0.004,-0.0153,-0.0026,0
7977481,0.9982,-0.0032,0.004,0.0592,-0.0051,-0.0141,0.0019,0
7977648,0.9982,-0.0032,0.004,0.0592,-0.0054,-0.0157,0.0117,0
7977814,0.9982,-0.0032,0.004,0.0593,-0.0016,-0.0081,0.0011,0
7977981,0.9982,-0.0032,0.004,0.0593,0.0103,-0.0159,0.0231,0
7978148,0.9982,-0.0032,0.004,0.0593,-0.0031,-0.0011,-0.0064,0
7978314,0.9982,-0.0032,0.004,0.0593,-0.0059,-0.0138,-0.0143,0
7978481,0.9982,-0.0032,0.004,0.0593,-0.0055,-0.0081,-0.0069,0
7978648,0.9982,-0.0032,0.004,0.0593,-0.004,-0.0033,0.0197,0
7978814,0.9982,-0.0032,0.004,0.0593,-0.001,0.0058,-0.003,0
7978981,0.9982,-0.0032,0.004,0.0593,-0.0045,0.0073,0.0234,0
7979148,0.9982,-0.0032,0.004,0.0593,-0.0017,-0.0051,0.022,0
7979314,0.9982,-0.0032,0.004,0.0593,-0.0124,-0.0096,-0.0006,0
7979481,0.9982,-0.0032,0.004,0.0594,-0.0036,-0.0071,-0.0009,0
7979648,0.9982,-0.0032,0.004,0.0594,-0.0046,-0.0126,-0.0041,0
7979815,0.9982,-0.0032,0.004,0.0594,-0.0082,-0.0122,-0.0184,0
7979981,0.9982,-0.0032,0.004,0.0594,0.001,0.0017,0.0073,0
7980148,0.9982,-0.0032,0.004,0.0594,-0.0026,0.0071,-0.0055,0
7980315,0.9982,-0.0032,0.004,0.0594,0.002,0.0111,-0.0086,0
7980481,0.9982,-0.0032,0.004,0.0594,0.015,-0.0063,-0.0177,0
7980648,0.9982,-0.0032,0.004,0.0594,-0.0078,-0.0153,-0.0002,0
7980815,0.9982,-0.0032,0.004,0.0594,0.0124,-0.0219,-0.0154,0
7980981,0.9982,-0.0033,0.004,0.0594,0.0091,0.0005,-0.0032,0
7981148,0.9982,-0.0033,0.004,0.0594,-0.0196,-0.0079,-0.0054,0
7981315,0.9982,-0.0033,0.004,0.0594,-0.0053,-0.007,-0.0054,0
7981481,0.9982,-0.0033,0.004,0.0594,-0.013,0.007,0.0118,0
7981648,0.9982,-0.0033,0.004,0.0594,-0.0047,-0.0107,0.0155,0
7981815,0.9982,-0.0033,0.004,0.0594,-0.0009,-0.0149,0.0024,0
7981981,0.9982,-0.0033,0.004,0.0594,0.0008,-0.0127,0.0082,0
7982148,0.9982,-0.0033,0.004,0.0594,-0.0075,-0.0059,0.0185,0
7982315,0.9982,-0.0033,0.004,0.0595,-0.0008,0.0042,0.0184,0
7982481,0.9982,-0.0033,0.004,0.0595,0.0075,0.0013,0.0122,0
7982648,0.9982,-0.0033,0.004,0.0595,-0.0043,0.0063,0.0083,0
7982815,0.9982,-0.0032,0.004,0.0595,-0.0022,-0.0103,0.0062,0
7982981,0.9982,-0.0032,0.004,0.0595,-0.0071,-0.0056,0.0088,0
7983148,0.9982,-0.0032,0.004,0.0595,-0.0038,-0.0066,-0.0053,0
7983315,0.9982,-0.0032,0.004,0.0595,-0.0172,-0.0031,-0.0161,0
7983481,0.9982,-0.0032,0.004,0.0595,-0.0031,-0.0069,0.0051,0
7983648,0.9982,-0.0032,0.004,0.0595,0.0083,-0.0053,-0.0027,0
7983815,0.9982,-0.0032,0.004,0.0595,0.0014,-0.0138,-0.0024,0
7983981,0.9982,-0.0032,0.004,0.0595,-0.0024,-0.0094,0.0092,0
7984148,0.9982,-0.0032,0.004,0.0596,0.0031,-0.0096,-0.01,0
7984315,0.9982,-0.0032,0.004,0.0596,-0.0013,-0.0044,0.0021,0
7984481,0.9982,-0.0032,0.004,0.0596,0.0043,-0.0106,-0.0046,0
7984648,0.9982,-0.0032,0.004,0.0596,0.0087,-0.0075,0.0022,0
7984815,0.9982,-0.0032,0.004,0.0596,-0.0074,-0.005,0.007,0
7984981,0.9982,-0.0032,0.004,0.0596,0.0071,-0.0104,-0.0127,0
7985148,0.9982,-0.0032,0.004,0.0596,-0.0118,-0.0099,0.0124,0
7985315,0.9982,-0.0032,0.004,0.0596,-0.0005,-0.0017,-0.0068,0
7985481,0.9982,-0.0032,0.004,0.0596,0.0004,0.0036,-0.022,0
7985648,0.9982,-0.0032,0.004,0.0597,-0.0135,0,-0.0041,0
7985815,0.9982,-0.0032,0.004,0.0597,0.0094,0.0009,-0.0163,0
7985981,0.9982,-0.0032,0.004,0.0597,-0.013,-0.0022,-0.0006,0
7986148,0.9982,-0.0032,0.004,0.0597,-0.0065,-0.0065,-0.0095,0
7986315,0.9982,-0.0032,0.004,0.0597,-0.0029,-0.0098,-0.0118,0
7986481,0.9982,-0.0032,0.004,0.0597,0.0008,-0.0174,-0.0091,0
7986648,0.9982,-0.0032,0.004,0.0597,0.0018,0.0026,-0.0073,0
7986815,0.9982,-0.0032,0.004,0.0597,0.0153,-0.0124,0.0004,0
7986981,0.9982,-0.0032,0.004,0.0597,-0.0015,0.0067,0.009,0
7987148,0.9982,-0.0032,0.004,0.0597,0.0056,0.0047,0.0086,0
7987315,0.9982,-0.0032,0.004,0.0597,0.0142,-0.011,0.0092,0
7987481,0.9982,-0.0032,0.0039,0.0597,-0.0093,-0.0025,-0.0045,0
7987648,0.9982,-0.0032,0.0039,0.0597,-0.0128,-0.012,0.0097,0
7987815,0.9982,-0.0032,0.0039,0.0597,-0.0088,-0.0014,-0.0008,0
7987981,0.9982,-0.0032,0.0039,0.0597,-0.003,-0.0141,-0.0018,0
7988148,0.9982,-0.0032,0.0039,0.0597,0.0043,-0.0139,0.011,0
7988315,0.9982,-0.0032,0.0039,0.0598,0.0124,-0.019,0.0024,0
7988481,0.9982,-0.0032,0.0039,0.0598,0.0072,-0.0021,0.0168,0
7988648,0.9982,-0.0032,0.0039,0.0598,-0.0026,-0.0085,0.0055,0
7988815,0.9982,-0.0032,0.0039,0.0598,-0.0103,-0.0107,0.0041,0
7988981,0.9982,-0.0032,0.0039,0.0598,-0.0104,-0.0074,-0.0064,0
7989148,0.9982,-0.0032,0.0039,0.0598,0.007,0.0082,-0.0147,0
7989315,0.9982,-0.0032,0.0039,0.0598,-0.004,0.004,0.0252,0
7989481,0.9982,-0.0032,0.0039,0.0598,0.0081,0.0057,0.0211,0
7989648,0.9982,-0.0032,0.0039,0.0598,-0.0026,0.0004,-0.0247,0
7989815,0.9982,-0.0032,0.0039,0.0598,-0.0147,-0.0137,0.0118,0
7989981,0.9982,-0.0032,0.0039,0.0598,-0.0158,-0.0099,0.0042,0
7990148,0.9982,-0.0032,0.0039,0.0599,-0.004,0.0025,-0.0092,0
7990315,0.9982,-0.0032,0.0039,0.0599,-0.0023,-0.0099,0.0132,0
7990481,0.9982,-0.0032,0.0039,0.0599,-0.0027,0.005,0.005,0
7990648,0.9982,-0.0032,0.0039,0.0599,-0.0021,-0.0078,-0.0003,0
7990815,0.9982,-0.0032,0.0039,0.0599,-0.014,-0.0006,-0.0002,0
7990981,0.9982,-0.0032,0.0039,0.0599,-0.0115,-0.0111,0.0224,0
7991148,0.9982,-0.0032,0.0039,0.0599,-0.0093,0.0032,0.0132,0
7991315,0.9982,-0.0032,0.0039,0.0599,0.004,-0.0079,-0.0373,0
7991481,0.9982,-0.0032,0.0039,0.0599,-0.003,0.001,0.0424,0
7991648,0.9982,-0.0032,0.0039,0.0599,0.0123,-0.002,0.0083,0
7991815,0.9982,-0.0032,0.0039,0.0599,0.0094,0.01,-0.0068,0
7991981,0.9982,-0.0032,0.0039,0.0599,0.0046,-0.0083,0.0092,0
7992148,0.9982,-0.0032,0.0039,0.0599,-0.0187,-0.0026,-0.0091,0
7992315,0.9982,-0.0032,0.0039,0.0599,-0.018,-0.0111,0.0019,0
7992481,0.9982,-0.0032,0.0039,0.0599,-0.0009,-0.0105,0.006,0
7992648,0.9982,-0.0032,0.0039,0.06,-0.0145,-0.008,0.0327,0
7992815,0.9982,-0.0032,0.0039,0.06,0.0035,0.0038,0.021,0
7992981,0.9982,-0.0033,0.0039,0.0599,-0.0004,0.0001,0.0075,0
7993148,0.9982,-0.0032,0.0039,0.0599,0.0108,-0.0039,0.0386,0
7993315,0.9982,-0.0032,0.0039,0.06,-0.0195,-0.0141,-0.0348,0
7993481,0.9982,-0.0032,0.0039,0.06,-0.034,-0.0144,0.0126,0
7993648,0.9982,-0.0033,0.0038,0.06,-0.0065,-0.0165,0.0289,0
7993815,0.9982,-0.0032,0.0038,0.06,0.0051,-0.019,-0.0277,0
7993981,0.9982,-0.0033,0.0038,0.06,-0.0109,0.0072,0.0112,0
7994148,0.9982,-0.0033,0.0039,0.06,-0.012,0.0045,0.0018,0
7994315,0.9982,-0.0032,0.0039,0.06,-0.0132,-0.0044,-0.007,0
7994481,0.9982,-0.0032,0.0039,0.06,-0.0109,-0.0124,0.0017,0
7994648,0.9982,-0.0032,0.0039,0.06,-0.0206,0.0107,0.0051,0
7994815,0.9982,-0.0032,0.0039,0.06,0.0032,-0.0151,0.0014,0
7994981,0.9982,-0.0032,0.0039,0.06,0.0155,-0.0099,0.0301,0
7995148,0.9982,-0.0032,0.0039,0.06,0.0106,-0.004,-0.0003,0
7995315,0.9982,-0.0032,0.0039,0.06,-0.0032,0.0033,-0.003,0
7995481,0.9982,-0.0032,0.0039,0.06,0.0043,-0.0081,0.0133,0
7995648,0.9982,-0.0032,0.0039,0.0601,0.003,-0.0053,0.0044,0
7995815,0.9982,-0.0032,0.0039,0.0601,-0.0106,-0.0087,-0.0054,0
7995981,0.9982,-0.0033,0.0039,0.0601,0.0095,-0.0038,-0.0092,0
7996148,0.9982,-0.0033,0.0039,0.0601,0.013,0.0026,0.019,0
7996315,0.9982,-0.0033,0.004,0.0601,0.0041,0.0147,0.0313,0
7996482,0.9982,-0.0033,0.004,0.0601,-0.0093,0.0056,0.0232,0
7996648,0.9982,-0.0033,0.004,0.0601,-0.008,-0.0098,0.024,0
7996815,0.9982,-0.0033,0.004,0.0601,-0.0116,-0.0104,-0.0135,0
7996982,0.9982,-0.0033,0.004,0.0601,-0.0109,-0.0249,0.0117,0
7997148,0.9982,-0.0033,0.004,0.0602,0,-0.0046,0.0019,0
7997315,0.9982,-0.0033,0.004,0.0602,0.003,-0.0003,0.0105,0
7997482,0.9982,-0.0033,0.004,0.0602,0.0011,-0.0003,0.0211,0
7997648,0.9982,-0.0033,0.004,0.0601,-0.0041,0.005,-0.0088,0
7997815,0.9982,-0.0033,0.0039,0.0601,-0.0251,-0.004,0.0116,0
7997982,0.9982,-0.0033,0.0039,0.0602,-0.007,-0.0122,-0.0163,0
7998148,0.9982,-0.0033,0.0039,0.0602,-0.0034,-0.016,-0.006,0
7998315,0.9982,-0.0033,0.0039,0.0602,-0.0002,0.0016,0.0244,0
7998482,0.9982,-0.0033,0.0039,0.0602,0.0054,0.0159,0.0201,0
7998648,0.9982,-0.0033,0.0039,0.0602,-0.0032,0.0205,0.0009,0
7998815,0.9982,-0.0033,0.0039,0.0602,0.0094,0.0022,0.0105,0
7998982,0.9982,-0.0033,0.0039,0.0602,-0.0234,-0.0124,0.0123,0
7999148,0.9982,-0.0033,0.0039,0.0602,-0.0268,-0.0133,-0.0048,0
7999315,0.9982,-0.0033,0.0039,0.0602,-0.0076,-0.0162,-0.0039,0
7999482,0.9982,-0.0033,0.0039,0.0602,0.0003,-0.0016,0.008,0
7999648,0.9982,-0.0033,0.0039,0.0602,0.0146,0.0045,0.0102,0
7999815,0.9982,-0.0033,0.0039,0.0602,-0.0008,0.0011,0.0269,0
7999982,0.9982,-0.0033,0.0039,0.0602,-0.0033,-0.0081,-0.0157,0
8000148,0.9982,-0.0033,0.0039,0.0602,-0.0123,-0.0112,-0.0019,0
8000315,0.9982,-0.0033,0.0039,0.0602,-0.022,-0.0306,-0.0031,0
8000482,0.9982,-0.0033,0.0039,0.0602,-0.0013,-0.0146,0.0167,0
8000648,0.9982,-0.0033,0.0039,0.0603,0.0249,0.0127,0.0253,0
8000815,0.9982,-0.0033,0.0039,0.0603,0.0378,0.0169,0.0203,0
8000982,0.9982,-0.0033,0.0039,0.0603,0.0082,0.0201,0.0129,0
8001148,0.9982,-0.0033,0.0039,0.0603,-0.0001,-0.0007,0.0041,0
8001315,0.9982,-0.0033,0.004,0.0603,-0.0058,-0.015,-0.0289,0
8001482,0.9982,-0.0033,0.004,0.0603,-0.0128,-0.0194,-0.001,0
8001648,0.9982,-0.0033,0.004,0.0603,-0.0094,-0.014,0.0034,0
8001815,0.9982,-0.0033,0.004,0.0603,0.006,0.0019,0.0129,0
8001982,0.9982,-0.0033,0.004,0.0603,0.0001,0.0202,0.0118,0
8002148,0.9982,-0.0033,0.004,0.0603,0.0001,0.0088,0.0145,0
8002315,0.9982,-0.0033,0.004,0.0603,-0.0068,-0.0002,0.0066,0
8002482,0.9982,-0.0033,0.004,0.0603,-0.015,-0.0046,-0.0016,0
8002648,0.9982,-0.0033,0.004,0.0603,-0.0229,-0.014,-0.0059,0
8002815,0.9982,-0.0033,0.004,0.0603,-0.0032,-0.0165,0.0188,0
8002982,0.9982,-0.0033,0.004,0.0603,0.0028,0.0229,-0.0052,0
8003148,0.9982,-0.0033,0.004,0.0603,0.0164,0.0034,0.0465,0
8003315,0.9982,-0.0033,0.004,0.0603,-0.0004,0.0081,0.0144,0
8003482,0.9982,-0.0033,0.004,0.0603,-0.0002,0.0094,0.0039,0
8003648,0.9982,-0.0033,0.004,0.0604,0.0012,-0.0118,0.0037,0
8003815,0.9982,-0.0033,0.004,0.0604,-0.014,-0.0066,0.0145,0
8003982,0.9982,-0.0033,0.004,0.0604,-0.0172,-0.0035,-0.0008,0
8004148,0.9982,-0.0033,0.004,0.0604,-0.0039,-0.018,0.0116,0
8004315,0.9982,-0.0033,0.0039,0.0604,0.016,0.0058,0.0076,0
8004482,0.9982,-0.0033,0.0039,0.0604,0.0173,0.0125,0.0096,0
8004648,0.9982,-0.0033,0.0039,0.0604,-0.0012,-0.0004,-0.0067,0
8004815,0.9982,-0.0033,0.0039,0.0604,-0.0128,-0.0067,-0.0118,0
8004982,0.9982,-0.0033,0.0039,0.0604,-0.0022,-0.013,-0.0259,0
8005148,0.9982,-0.0033,0.0039,0.0604,-0.0002,-0.0016,0.0058,0
8005315,0.9982,-0.0033,0.0039,0.0604,0.0068,0.0025,0.0051,0
8005482,0.9982,-0.0033,0.0039,0.0604,0.0006,0.0096,0.0231,0
8005648,0.9982,-0.0033,0.0039,0.0604,-0.003,-0.0017,0.0126,0
8005815,0.9982,-0.0033,0.0039,0.0604,-0.0046,-0.013,-0.0075,0
8005982,0.9982,-0.0033,0.0039,0.0604,-0.0107,-0.006,-0.019,0
8006148,0.9982,-0.0033,0.0039,0.0604,-0.0121,-0.0069,-0.0175,0
8006315,0.9982,-0.0033,0.0039,0.0605,-0.0101,-0.0217,0.0187,0
8006482,0.9982,-0.0033,0.0039,0.0605,0.0099,0.0204,0.0236,0
8006648,0.9982,-0.0033,0.0039,0.0605,0.0254,0.0198,0.0422,0
8006815,0.9982,-0.0033,0.0039,0.0605,0.0088,-0.0044,0.0203,0
8006982,0.9982,-0.0033,0.0039,0.0605,-0.0034,-0.0102,-0.0107,0
8007148,0.9982,-0.0033,0.0039,0.0605,-0.0176,-0.0166,-0.0089,0
8007315,0.9982,-0.0033,0.0039,0.0605,-0.0096,-0.0138,-0.016,0
8007482,0.9982,-0.0033,0.0039,0.0605,-0.0067,-0.0064,0.0097,0
8007648,0.9982,-0.0033,0.0039,0.0606,-0.0004,0.0043,0.0296,0
8007815,0.9982,-0.0033,0.0039,0.0606,0.0113,0.0087,0.0337,0
8007982,0.9982,-0.0033,0.0039,0.0605,0.0142,0.0094,-0.0107,0
8008148,0.9982,-0.0033,0.0039,0.0606,-0.004,-0.0032,0.0186,0
8008315,0.9982,-0.0033,0.0039,0.0606,-0.0138,-0.009,-0.0209,0
8008482,0.9982,-0.0033,0.0039,0.0606,-0.0158,-0.0007,-0.0102,0
8008648,0.9982,-0.0033,0.0039,0.0606,-0.005,-0.0024,0.0037,0
8008815,0.9982,-0.0033,0.0039,0.0606,0.0004,0.0018,0.0252,0
8008982,0.9982,-0.0033,0.0039,0.0606,0.0064,0.0116,-0.0008,0
8009148,0.9982,-0.0033,0.0039,0.0606,0.0028,-0.0001,0.0253,0
8009315,0.9982,-0.0033,0.004,0.0606,-0.005,-0.008,0.0146,0
8009482,0.9982,-0.0033,0.004,0.0606,-0.0097,-0.0112,0.0123,0
8009648,0.9982,-0.0033,0.004,0.0606,-0.0163,-0.0145,-0.0229,0
8009815,0.9981,-0.0033,0.0039,0.0606,-0.0054,-0.0125,-0.015,0
8009982,0.9982,-0.0033,0.0039,0.0606,-0.0026,-0.0052,0.0185,0
8010148,0.9981,-0.0033,0.0039,0.0606,0.0001,0.0116,0.0109,0
8010315,0.9981,-0.0033,0.0039,0.0606,0.032,0.0124,0.0055,0
8010482,0.9981,-0.0033,0.0039,0.0606,0.0049,-0.0196,0.0095,0
8010648,0.9981,-0.0033,0.0039,0.0606,-0.0042,-0.0022,-0.0215,0
8010815,0.9981,-0.0033,0.0039,0.0606,-0.02,-0.0122,-0.013,0
8010982,0.9981,-0.0033,0.004,0.0606,-0.005,-0.0033,-0.0227,0
8011148,0.9981,-0.0033,0.0039,0.0606,-0.0009,-0.0078,-0.0079,0
8011315,0.9981,-0.0033,0.0039,0.0606,0.0101,0.0019,0.0123,0
8011482,0.9981,-0.0033,0.0039,0.0606,0.0098,0.0034,0.0386,0
8011648,0.9981,-0.0033,0.0039,0.0606,0.0104,-0.0043,-0.0016,0
8011815,0.9981,-0.0033,0.0039,0.0606,-0.0138,-0.0046,0.0235,0
8011982,0.9981,-0.0033,0.0039,0.0606,-0.0174,-0.0234,-0.001,0
8012148,0.9982,-0.0033,0.0039,0.0606,-0.0183,-0.0215,-0.0115,0
8012315,0.9981,-0.0033,0.0039,0.0606,0.0018,0.003,0.0016,0
8012482,0.9981,-0.0033,0.0039,0.0606,0.0205,-0.0058,0.0265,0
8012648,0.9981,-0.0033,0.0039,0.0606,0.0138,0.0024,0.0263,0
8012815,0.9981,-0.0033,0.0039,0.0606,0.0051,-0.0048,0.0149,0
8012982,0.9981,-0.0033,0.0039,0.0606,-0.0148,0.001,0.0123,0
8013149,0.9981,-0.0033,0.0039,0.0606,-0.0214,-0.0221,0.011,0
8013315,0.9981,-0.0033,0.0039,0.0606,-0.0149,-0.0118,-0.0169,0
8013482,0.9981,-0.0033,0.0039,0.0606,-0.0035,-0.004,0.0022,0
8013649,0.9981,-0.0033,0.0039,0.0606,0.0019,-0.0002,0.0082,0
8013815,0.9981,-0.0033,0.0039,0.0606,0.0039,0.0109,0.0125,0
8013982,0.9981,-0.0033,0.0039,0.0606,0.0035,-0.0039,0.0051,0
8014149,0.9981,-0.0033,0.0039,0.0606,-0.0012,-0.0064,0.0036,0
8014315,0.9981,-0.0033,0.0039,0.0606,-0.0086,-0.0124,-0.024,0
8014482,0.9981,-0.0033,0.0039,0.0606,-0.0164,-0.0171,-0.007,0
8014649,0.9981,-0.0033,0.0039,0.0606,-0.0022,-0.0012,0.0105,0
8014815,0.9981,-0.0033,0.0039,0.0606,-0.0048,0.0004,0.0151,0
8014982,0.9981,-0.0033,0.0039,0.0606,0.0196,0.0077,0.0224,0
8015149,0.9981,-0.0033,0.004,0.0606,0.0111,0.0039,0.0102,0
8015315,0.9981,-0.0033,0.004,0.0606,0.0011,-0.0031,-0.0047,0
8015482,0.9981,-0.0033,0.004,0.0606,-0.006,-0.0232,-0.0291,0
8015649,0.9981,-0.0033,0.004,0.0606,-0.0063,-0.0208,0.0039,0
8015815,0.9981,-0.0033,0.004,0.0606,-0.0124,0.0063,0.003,0
8015982,0.9981,-0.0033,0.004,0.0607,0.0193,0.0057,-0.017,0
8016149,0.9981,-0.0033,0.0039,0.0607,0.013,0.0051,0.0212,0
8016315,0.9981,-0.0033,0.004,0.0607,0.0037,-0.0039,0.0188,0
8016482,0.9981,-0.0033,0.004,0.0607,0.0066,-0.0039,0.0005,0
8016649,0.9981,-0.0033,0.004,0.0607,-0.0147,-0.0153,-0.0197,0
8016815,0.9981,-0.0033,0.004,0.0607,-0.0233,-0.0135,-0.0048,0
8016982,0.9981,-0.0033,0.004,0.0607,-0.0048,-0.0112,-0.0172,0
8017149,0.9981,-0.0033,0.004,0.0607,0.0095,0.0034,0.0044,0
8017315,0.9981,-0.0033,0.004,0.0607,0.0105,0.0002,0.0229,0
8017482,0.9981,-0.0033,0.004,0.0607,0.0155,-0.0015,-0.0047,0
8017649,0.9981,-0.0033,0.004,0.0607,-0.0014,0.0148,0.0076,0
8017815,0.9981,-0.0033,0.004,0.0607,-0.0099,-0.0107,0.009,0
8017982,0.9981,-0.0033,0.004,0.0607,-0.0202,-0.0129,-0.018,0
8018149,0.9981,-0.0033,0.004,0.0607,0.004,-0.0101,-0.031,0
8018315,0.9981,-0.0033,0.004,0.0607,0.0135,-0.0002,-0.0073,0
8018482,0.9981,-0.0033,0.0039,0.0607,0.0151,-0.0025,0.0105,0
8018649,0.9981,-0.0033,0.004,0.0607,0.0008,-0.0116,0.0087,0
8018815,0.9981,-0.0033,0.004,0.0607,-0.0013,-0.0159,0.0113,0
8018982,0.9981,-0.0033,0.004,0.0607,-0.0109,-0.007,-0.0026,0
8019149,0.9981,-0.0033,0.004,0.0607,-0.0173,-0.0028,0.0059,0
8019315,0.9981,-0.0033,0.004,0.0608,-0.0007,0.0039,-0.0068,0
8019482,0.9981,-0.0033,0.0039,0.0608,0.0093,-0.0084,0.0176,0
8019649,0.9981,-0.0033,0.0039,0.0608,0.0232,-0.0069,0.0107,0
8019815,0.9981,-0.0033,0.0039,0.0608,0.0153,-0.0027,0.0139,0
8019982,0.9981,-0.0033,0.0039,0.0608,0.0015,0.0072,0.0085,0
8020149,0.9981,-0.0033,0.0039,0.0608,-0.0073,-0.001,0.015,0
8020315,0.9981,-0.0033,0.0039,0.0608,-0.0065,-0.0019,0.0032,0
8020482,0.9981,-0.0033,0.0039,0.0608,0.0005,-0.0055,-0.0018,0
8020649,0.9981,-0.0033,0.0039,0.0608,0.0161,-0.0069,0.0243,0
8020815,0.9981,-0.0033,0.0039,0.0608,0.0104,-0.0045,0.0164,0
8020982,0.9981,-0.0033,0.004,0.0608,0.0207,-0.0047,0.0242,0
8021149,0.9981,-0.0033,0.004,0.0608,-0.0089,0.0004,0.005,0
8021315,0.9981,-0.0033,0.004,0.0608,-0.0091,-0.0051,-0.0196,0
8021482,0.9981,-0.0033,0.004,0.0608,-0.0173,-0.0227,-0.0161,0
8021649,0.9981,-0.0033,0.0039,0.0608,-0.0062,0.0059,0.0137,0
8021815,0.9981,-0.0033,0.0039,0.0608,0.0116,-0.0044,-0.0007,0
8021982,0.9981,-0.0033,0.0039,0.0608,0.0186,-0.0047,0.0307,0
8022149,0.9981,-0.0033,0.004,0.0608,0.0117,0.0156,0.0046,0
8022315,0.9981,-0.0033,0.004,0.0608,-0.0066,0.0092,0.0014,0
8022482,0.9981,-0.0033,0.004,0.0608,-0.0063,-0.0218,0.0102,0
8022649,0.9981,-0.0032,0.004,0.0608,-0.0195,-0.0066,-0.0454,0
8022815,0.9981,-0.0032,0.0039,0.0609,-0.0015,-0.002,0.029,0
8022982,0.9981,-0.0032,0.004,0.0609,0.0019,-0.0181,-0.0131,0
8023149,0.9981,-0.0032,0.004,0.0608,0.0115,0.0066,0.0248,0
8023315,0.9981,-0.0032,0.004,0.0609,0.0085,0.0077,-0.0004,0
8023482,0.9981,-0.0032,0.004,0.0609,-0.0157,-0.0076,0.015,0
8023649,0.9981,-0.0032,0.004,0.0609,-0.0002,-0.0144,-0.0044,0
8023815,0.9981,-0.0032,0.004,0.0609,-0.001,-0.0104,-0.0544,0
8023982,0.9981,-0.0032,0.0039,0.0609,-0.0098,-0.0136,0.0266,0
8024149,0.9981,-0.0032,0.0039,0.0609,0.0027,-0.0183,-0.0103,0
8024315,0.9981,-0.0032,0.0039,0.0609,0.0152,0.0051,-0.0094,0
8024482,0.9981,-0.0032,0.0039,0.0609,0.0117,0.0062,0.0561,0
8024649,0.9981,-0.0032,0.004,0.0609,0.0157,0.0102,0.0056,0
8024815,0.9981,-0.0032,0.004,0.0609,-0.0108,0.0022,-0.0301,0
8024982,0.9981,-0.0032,0.004,0.0609,-0.0152,-0.0187,-0.0035,0
8025149,0.9981,-0.0032,0.004,0.061,-0.0003,-0.0013,-0.0189,0
8025315,0.9981,-0.0032,0.004,0.061,-0.0092,-0.01,0.008,0
8025482,0.9981,-0.0032,0.004,0.061,0.0268,0.0047,-0.0004,0
8025649,0.9981,-0.0032,0.004,0.061,0.0072,0.0008,-0.0001,0
8025815,0.9981,-0.0032,0.004,0.061,-0.01,-0.0134,0.0121,0
8025982,0.9981,-0.0032,0.004,0.061,-0.0225,-0.0132,-0.0016,0
8026149,0.9981,-0.0032,0.004,0.061,-0.0152,-0.019,-0.0248,0
8026315,0.9981,-0.0032,0.004,0.061,-0.0056,-0.0279,0.0045,0
8026482,0.9981,-0.0032,0.004,0.061,0.0084,-0.0009,0.0153,0
8026649,0.9981,-0.0032,0.004,0.061,0.0056,0.0055,0.0415,0
8026815,0.9981,-0.0032,0.004,0.061,0.0289,0.0123,0.024,0
8026982,0.9981,-0.0032,0.004,0.061,0.0049,0.0064,0.0015,0
8027149,0.9981,-0.0032,0.004,0.061,-0.0043,-0.0198,0.02,0
8027315,0.9981,-0.0032,0.004,0.061,-0.0151,-0.0196,-0.013,0
8027482,0.9981,-0.0032,0.004,0.061,-0.0146,-0.0116,0.0023,0
8027649,0.9981,-0.0032,0.0039,0.061,-0.0027,-0.0072,0.0133,0
8027815,0.9981,-0.0032,0.0039,0.061,0.011,0.0035,-0.0049,0
8027982,0.9981,-0.0032,0.0039,0.061,-0.0005,0.0046,0.0169,0
8028149,0.9981,-0.0032,0.0039,0.061,0.0111,-0.012,0.0133,0
8028315,0.9981,-0.0032,0.0039,0.061,-0.0102,-0.0046,-0.017,0
8028482,0.9981,-0.0032,0.0039,0.061,-0.0111,-0.0082,0.0138,0
8028649,0.9981,-0.0032,0.0039,0.061,0.0058,-0.0071,-0.0005,0
8028815,0.9981,-0.0032,0.0039,0.061,0.0122,-0.0025,0.003,0
8028982,0.9981,-0.0032,0.0039,0.061,0.0231,0.0185,0.0213,0
8029149,0.9981,-0.0032,0.004,0.061,-0.0007,0.0173,0.0101,0
8029315,0.9981,-0.0032,0.004,0.061,0.0026,-0.0069,0.0209,0
8029482,0.9981,-0.0032,0.004,0.061,-0.0109,-0.0132,-0.0137,0
8029649,0.9981,-0.0032,0.004,0.061,-0.0189,-0.0121,-0.0166,0
8029816,0.9981,-0.0032,0.004,0.0611,0.0034,0.0008,-0.0005,0
8029982,0.9981,-0.0032,0.0039,0.0611,0.006,-0.002,0.0082,0
8030149,0.9981,-0.0032,0.0039,0.0611,0.0237,0.0183,0.0224,0
8030316,0.9981,-0.0032,0.0039,0.0611,0.0136,-0.0004,0.0239,0
8030482,0.9981,-0.0032,0.0039,0.0611,-0.0003,-0.0104,0.0027,0
8030649,0.9981,-0.0032,0.0039,0.0611,-0.0089,-0.0191,0.0038,0
8030816,0.9981,-0.0032,0.0039,0.0611,-0.0117,-0.0203,-0.0207,0
8030982,0.9981,-0.0032,0.0039,0.0611,-0.0059,-0.0056,-0.0179,0
8031149,0.9981,-0.0032,0.004,0.0611,0.0135,0.0022,0.0191,0
8031316,0.9981,-0.0032,0.004,0.0611,0.0182,0.0146,0.0212,0
8031482,0.9981,-0.0032,0.004,0.0611,0.0061,0.0101,0.0263,0
8031649,0.9981,-0.0032,0.004,0.0611,-0.0124,-0.0136,0.0046,0
8031816,0.9981,-0.0032,0.004,0.0611,-0.0147,-0.0098,-0.0023,0
8031982,0.9981,-0.0032,0.004,0.0611,-0.0148,-0.001,-0.0022,0
8032149,0.9981,-0.0032,0.004,0.0611,-0.01,-0.0051,-0.0002,0
8032316,0.9981,-0.0032,0.004,0.0611,0.0032,0.0161,0.0193,0
8032482,0.9981,-0.0032,0.004,0.0611,0.0168,0.0083,0.0031,0
8032649,0.9981,-0.0032,0.004,0.0611,0.0111,-0.0007,0.0022,0
8032816,0.9981,-0.0032,0.004,0.0611,-0.013,-0.0134,0.022,0
8032982,0.9981,-0.0032,0.004,0.0611,-0.0266,-0.0227,-0.013,0
8033149,0.9981,-0.0032,0.004,0.0611,-0.019,-0.0094,-0.0039,0
8033316,0.9981,-0.0032,0.004,0.0611,0.015,0.0081,0.0088,0
8033482,0.9981,-0.0032,0.004,0.0611,0.0108,0.0083,0.0154,0
8033649,0.9981,-0.0032,0.004,0.0611,0.0158,0.0029,0.0009,0
8033816,0.9981,-0.0032,0.004,0.0611,0.0071,0.0071,0.0217,0
8033982,0.9981,-0.0032,0.004,0.0611,0.0026,-0.0026,-0.0124,0
8034149,0.9981,-0.0032,0.004,0.0611,-0.0181,-0.0064,-0.0135,0
8034316,0.9981,-0.0032,0.004,0.0611,-0.0192,-0.0007,0.0161,0
8034482,0.9981,-0.0032,0.004,0.0612,-0.009,0.0076,-0.012,0
8034649,0.9981,-0.0032,0.004,0.0612,0.0058,-0.0087,0.0029,0
8034816,0.9981,-0.0032,0.004,0.0612,0.0276,-0.0066,0.0179,0
8034982,0.9981,-0.0032,0.004,0.0612,0.0164,0.0164,-0.0053,0
8035149,0.9981,-0.0032,0.004,0.0612,-0.0027,-0.0148,0.0128,0
8035316,0.9981,-0.0032,0.004,0.0612,-0.0201,-0.0077,0.0066,0
8035482,0.9981,-0.0032,0.004,0.0612,-0.0181,0.0016,-0.0084,0
8035649,0.9981,-0.0032,0.004,0.0612,-0.0048,-0.004,0.0068,0
8035816,0.9981,-0.0032,0.004,0.0612,0.0068,0.0129,0.0151,0
8035982,0.9981,-0.0033,0.0039,0.0612,0.0229,0.014,0.0146,0
8036149,0.9981,-0.0033,0.0039,0.0612,0.014,-0.0016,0.0211,0
8036316,0.9981,-0.0033,0.0039,0.0612,0.0109,-0.0214,0.0132,0
8036482,0.9981,-0.0033,0.0039,0.0612,-0.0063,0.0005,-0.0062,0
8036649,0.9981,-0.0033,0.0039,0.0612,-0.0201,-0.007,-0.0235,0
8036816,0.9981,-0.0033,0.0039,0.0612,-0.0021,0.0018,-0.0001,0
8036982,0.9981,-0.0033,0.0039,0.0612,0.0028,0.0076,0.0036,0
8037149,0.9981,-0.0033,0.0039,0.0612,0.0041,0.0076,0.0076,0
8037316,0.9981,-0.0033,0.0039,0.0612,0.0015,-0.0007,0.0232,0
8037482,0.9981,-0.0033,0.0039,0.0612,-0.0038,0.001,0.0273,0
8037649,0.9981,-0.0033,0.0039,0.0612,-0.0147,-0.0112,-0.0201,0
8037816,0.9981,-0.0033,0.0039,0.0612,-0.0201,-0.0083,-0.0027,0
8037982,0.9981,-0.0033,0.0039,0.0612,-0.0092,-0.0156,-0.0212,0
8038149,0.9981,-0.0033,0.0039,0.0612,0.0117,-0.0012,0.0204,0
8038316,0.9981,-0.0033,0.0039,0.0613,-0.006,0.0094,0.0088,0
8038482,0.9981,-0.0033,0.0039,0.0613,0.0041,0.012,0.0324,0
8038649,0.9981,-0.0033,0.0039,0.0613,-0.0055,-0.0057,0.0146,0
8038816,0.9981,-0.0033,0.0039,0.0613,-0.0154,-0.0078,0.0172,0
8038982,0.9981,-0.0033,0.0039,0.0613,-0.0181,-0.0173,0.0047,0
8039149,0.9981,-0.0033,0.0039,0.0613,-0.0075,-0.0136,-0.0007,0
8039316,0.9981,-0.0033,0.0039,0.0613,-0.0028,0.0013,0.0032,0
8039482,0.9981,-0.0033,0.0039,0.0613,0.0011,0.0141,0.0024,0
8039649,0.9981,-0.0033,0.0039,0.0613,-0.0021,0.0187,0.0183,0
8039816,0.9981,-0.0033,0.0039,0.0613,0.0015,0.0022,0.0333,0
8039982,0.9981,-0.0033,0.0039,0.0613,-0.0103,-0.0066,-0.0122,0
8040149,0.9981,-0.0033,0.0039,0.0613,-0.0246,-0.0136,0.0037,0
8040316,0.9981,-0.0033,0.0039,0.0613,-0.0063,-0.008,0.0079,0
8040482,0.9981,-0.0033,0.0039,0.0613,0.0105,-0.0084,-0.0115,0
8040649,0.9981,-0.0033,0.0039,0.0613,0.0026,0.0121,0.012,0
8040816,0.9981,-0.0033,0.0039,0.0613,0.005,0.0005,0.0091,0
8040982,0.9981,-0.0033,0.004,0.0613,-0.0055,-0.0136,0.0073,0
8041149,0.9981,-0.0033,0.004,0.0613,-0.0127,0.0009,0.0103,0
8041316,0.9981,-0.0033,0.004,0.0613,-0.0006,-0.0109,0.0052,0
8041482,0.9981,-0.0033,0.004,0.0613,-0.0117,-0.014,-0.0119,0
8041649,0.9981,-0.0033,0.004,0.0614,0.0003,0.0075,0.0063,0
8041816,0.9981,-0.0033,0.004,0.0614,-0.007,0.0005,-0.0036,0
8041982,0.9981,-0.0033,0.004,0.0613,-0.0034,-0.0071,0.0025,0
8042149,0.9981,-0.0033,0.004,0.0613,-0.0031,-0.0008,0.0156,0
8042316,0.9981,-0.0032,0.004,0.0613,-0.0076,-0.0182,0.0106,0
8042482,0.9981,-0.0032,0.004,0.0613,0.0037,-0.0233,-0.0002,0
8042649,0.9981,-0.0032,0.004,0.0614,0.011,-0.0111,0.0083,0
8042816,0.9981,-0.0032,0.004,0.0614,-0.0009,0.001,0.0104,0
8042982,0.9981,-0.0032,0.004,0.0614,0.0054,0.0077,0.0197,0
8043149,0.9981,-0.0032,0.004,0.0614,0.0006,0.0008,0.0317,0
8043316,0.9981,-0.0032,0.004,0.0614,-0.0063,0.0026,0.0197,0
8043482,0.9981,-0.0032,0.004,0.0614,-0.0093,-0.0017,0.0074,0
8043649,0.9981,-0.0032,0.004,0.0614,0.0039,0.0067,-0.0126,0
8043816,0.9981,-0.0032,0.004,0.0614,0.0055,-0.0003,0.028,0
8043982,0.9981,-0.0032,0.004,0.0614,-0.0025,-0.0065,0.0074,0
8044149,0.9981,-0.0032,0.004,0.0614,0.0053,0.0022,-0.008,0
8044316,0.9981,-0.0032,0.004,0.0614,0.0012,-0.0032,-0.0074,0
8044482,0.9981,-0.0032,0.004,0.0614,-0.0089,0.0026,0.0129,0
8044649,0.9981,-0.0032,0.004,0.0614,0.003,-0.0247,0.003,0
8044816,0.9981,-0.0032,0.004,0.0614,-0.0061,-0.0155,0.0011,0
8044982,0.9981,-0.0032,0.004,0.0614,0.0051,-0.016,0.0232,0
8045149,0.9981,-0.0032,0.004,0.0614,-0.0005,-0.0052,0.0304,0
8045316,0.9981,-0.0032,0.004,0.0614,0.0019,-0.0043,0.0284,0
8045482,0.9981,-0.0032,0.004,0.0614,-0.0062,0.0053,0.0159,0
8045649,0.9981,-0.0032,0.004,0.0614,0.0011,-0.0099,-0.0069,0
8045816,0.9981,-0.0032,0.004,0.0614,-0.0007,-0.0075,0.004,0
8045982,0.9981,-0.0032,0.004,0.0614,-0.011,0.0018,0.0045,0
8046149,0.9981,-0.0032,0.004,0.0614,0.003,-0.0085,0.0202,0
8046316,0.9981,-0.0032,0.004,0.0615,-0.004,-0.012,0.002,0
8046483,0.9981,-0.0032,0.004,0.0615,-0.0006,-0.0047,0.0071,0
8046649,0.9981,-0.0032,0.004,0.0615,-0.0015,-0.0018,0.0089,0
8046816,0.9981,-0.0032,0.004,0.0615,0.002,-0.014,-0.0105,0
8046983,0.9981,-0.0032,0.004,0.0615,-0.008,-0.0264,0.002,0
8047149,0.9981,-0.0032,0.004,0.0615,0.0106,-0.0008,0.0127,0
8047316,0.9981,-0.0032,0.004,0.0615,0.0003,-0.0063,0.0191,0
8047483,0.9981,-0.0032,0.004,0.0615,-0.0052,0.0105,0.0119,0
8047649,0.9981,-0.0032,0.004,0.0615,0.0045,-0.0086,0.0259,0
8047816,0.9981,-0.0032,0.004,0.0615,0.0173,-0.0024,0.0072,0
8047983,0.9981,-0.0032,0.0039,0.0615,-0.0148,-0.0068,-0.0089,0
8048149,0.9981,-0.0032,0.0039,0.0615,-0.0189,-0.0119,-0.005,0
8048316,0.9981,-0.0032,0.0039,0.0615,-0.0122,-0.0184,0.0074,0
8048483,0.9981,-0.0032,0.0039,0.0615,0.0066,-0.0127,-0.0025,0
8048649,0.9981,-0.0032,0.0039,0.0615,-0.0031,0.0016,0.0035,0
8048816,0.9981,-0.0032,0.0039,0.0615,-0.012,0.0036,0.0082,0
8048983,0.9981,-0.0032,0.0039,0.0615,0.0029,-0.0009,-0.0038,0
8049149,0.9981,-0.0032,0.0039,0.0615,-0.0015,-0.0281,0.0012,0
8049316,0.9981,-0.0032,0.0039,0.0615,-0.0007,-0.0137,0.025,0
8049483,0.9981,-0.0032,0.0039,0.0616,0.0012,0.0019,0.0084,0
8049649,0.9981,-0.0032,0.0039,0.0615,0.0031,0.0039,0.0084,0
8049816,0.9981,-0.0032,0.0039,0.0615,0.0068,0.0076,0.011,0
8049983,0.9981,-0.0032,0.0039,0.0616,0.0052,0.0015,0.0011,0
8050149,0.9981,-0.0032,0.004,0.0615,0.0074,-0.0119,0.0227,0
8050316,0.9981,-0.0032,0.0039,0.0616,-0.0018,-0.0172,-0.0267,0
8050483,0.9981,-0.0032,0.004,0.0616,0.0001,-0.0028,-0.0051,0
8050649,0.9981,-0.0032,0.004,0.0616,-0.0055,0.005,0.0181,0
8050816,0.9981,-0.0032,0.004,0.0616,0,-0.0121,-0.001,0
8050983,0.9981,-0.0032,0.004,0.0616,0.008,0.0057,0.0139,0
8051149,0.9981,-0.0032,0.004,0.0616,0.0004,0.0015,0.0146,0
8051316,0.9981,-0.0032,0.004,0.0616,-0.0118,0,0.0095,0
8051483,0.9981,-0.0032,0.004,0.0616,-0.0112,-0.024,-0.0204,0
8051649,0.9981,-0.0032,0.004,0.0616,0.0058,-0.0097,0.0014,0
8051816,0.9981,-0.0032,0.0039,0.0616,-0.0118,-0.0115,-0.0058,0
8051983,0.9981,-0.0032,0.0039,0.0616,0.0195,0.0044,0.0266,0
8052149,0.9981,-0.0032,0.0039,0.0616,0.0014,-0.0094,0.0024,0
8052316,0.9981,-0.0032,0.0039,0.0616,0.0075,0.005,0.0027,0
8052483,0.9981,-0.0032,0.004,0.0616,-0.0116,0.0045,-0.0135,0
8052649,0.9981,-0.0032,0.004,0.0616,-0.0113,-0.0097,-0.0027,0
8052816,0.9981,-0.0032,0.004,0.0616,0.0005,-0.0002,0.0089,0
8052983,0.9981,-0.0032,0.004,0.0616,0.0002,-0.012,0.0123,0
8053149,0.9981,-0.0032,0.004,0.0616,0.0086,-0.0021,0.0173,0
8053316,0.9981,-0.0032,0.004,0.0616,0.0023,0.0062,0.0093,0
8053483,0.9981,-0.0032,0.004,0.0616,-0.0087,0.0009,0.0116,0
8053649,0.9981,-0.0032,0.004,0.0616,0.0033,-0.0119,-0.0053,0
8053816,0.9981,-0.0032,0.004,0.0616,-0.0039,-0.0085,-0.0061,0
8053983,0.9981,-0.0032,0.004,0.0616,0.0085,-0.0089,0.0027,0
8054149,0.9981,-0.0032,0.004,0.0616,0.0103,-0.0083,0.0075,0
8054316,0.9981,-0.0031,0.004,0.0616,0.0156,0.0174,0.0145,0
8054483,0.9981,-0.0032,0.004,0.0616,0.0061,0.0087,0.0279,0
8054649,0.9981,-0.0032,0.004,0.0616,0.0017,-0.0021,-0.0117,0
8054816,0.9981,-0.0032,0.004,0.0616,-0.0089,0.0059,0.0004,0
8054983,0.9981,-0.0031,0.004,0.0616,-0.0086,-0.03,-0.0094,0
8055149,0.9981,-0.0031,0.004,0.0616,-0.0123,-0.0175,-0.0224,0
8055316,0.9981,-0.0031,0.004,0.0616,0.0043,-0.004,0.0074,0
8055483,0.9981,-0.0031,0.004,0.0616,0.018,-0.0028,0.0211,0
8055649,0.9981,-0.0031,0.004,0.0616,0.0172,0.0097,0.0227,0
8055816,0.9981,-0.0031,0.004,0.0616,-0.0129,0.0043,-0.0105,0
8055983,0.9981,-0.0033,0.004,0.0615,-0.0194,0.0011,0.0042,0
8056149,0.9981,-0.0033,0.004,0.0615,-0.0096,0.0005,-0.0054,0
8056316,0.9981,-0.0033,0.004,0.0616,0.0059,-0.0156,0.0028,0
8056483,0.9981,-0.0033,0.004,0.0616,0.0124,-0.0143,0.0145,0
8056649,0.9981,-0.0033,0.004,0.0615,0.0162,0.0273,0.0287,0
8056816,0.9981,-0.0033,0.004,0.0616,0.0079,-0.0001,0.0168,0
8056983,0.9981,-0.0033,0.004,0.0615,0.0067,0.004,0.0131,0
8057149,0.9981,-0.0033,0.004,0.0615,-0.0019,-0.0042,-0.0004,0
8057316,0.9981,-0.0033,0.004,0.0616,-0.016,-0.0178,-0.022,0
8057483,0.9981,-0.0033,0.004,0.0616,0.0041,-0.0064,-0.0022,0
8057649,0.9981,-0.0032,0.004,0.0616,-0.0016,-0.0093,0.0053,0
8057816,0.9981,-0.0032,0.004,0.0616,-0.006,0.0005,0.0169,0
8057983,0.9981,-0.0032,0.004,0.0616,-0.003,0.0023,0.0214,0
8058149,0.9981,-0.0032,0.004,0.0616,0.0037,-0.0175,-0.0157,0
8058316,0.9981,-0.0032,0.004,0.0616,-0.0099,-0.0105,-0.0101,0
8058483,0.9981,-0.0032,0.004,0.0616,-0.015,-0.021,0.0073,0
8058649,0.9981,-0.0032,0.004,0.0616,-0.0009,-0.0089,-0.0099,0
8058816,0.9981,-0.0032,0.004,0.0616,0.001,0.0004,0.0255,0
8058983,0.9981,-0.0032,0.004,0.0616,0.0064,0.0185,-0.0136,0
8059149,0.9981,-0.0032,0.004,0.0616,0.019,0.0104,0.012,0
8059316,0.9981,-0.0032,0.004,0.0616,-0.0045,0.0007,-0.0163,0
8059483,0.9981,-0.0032,0.004,0.0616,-0.0099,-0.017,0.0031,0
8059649,0.9981,-0.0032,0.004,0.0616,-0.0057,-0.0107,0.0081,0
8059816,0.9981,-0.0032,0.004,0.0616,0.0069,-0.0107,-0.0046,0
8059983,0.9981,-0.0032,0.004,0.0616,0.0012,-0.006,0.0169,0
8060149,0.9981,-0.0032,0.004,0.0616,-0.0028,-0.0093,0.0233,0
8060316,0.9981,-0.0032,0.004,0.0616,0.0091,-0.0025,0.0019,0
8060483,0.9981,-0.0032,0.004,0.0616,-0.0006,0.0068,-0.0104,0
8060649,0.9981,-0.0032,0.004,0.0616,-0.0175,-0.0096,-0.0165,0
8060816,0.9981,-0.0032,0.004,0.0616,-0.0204,-0.0087,-0.0041,0
8060983,0.9981,-0.0032,0.004,0.0616,-0.0041,-0.0104,0.0315,0
8061149,0.9981,-0.0032,0.004,0.0616,0.0128,0.0137,-0.0089,0
8061316,0.9981,-0.0032,0.004,0.0616,0.0146,-0.0119,0.018,0
8061483,0.9981,-0.0032,0.004,0.0616,-0.01,0.004,0.0033,0
8061649,0.9981,-0.0032,0.004,0.0616,-0.0028,0.0042,-0.0146,0
8061816,0.9981,-0.0032,0.004,0.0616,-0.0145,-0.0119,-0.0143,0
8061983,0.9981,-0.0032,0.004,0.0616,-0.0076,0.0033,-0.0079,0
8062149,0.9981,-0.0032,0.004,0.0616,-0.0089,-0.0062,-0.0014,0
8062316,0.9981,-0.0032,0.004,0.0616,0.0061,-0.0117,0.0106,0
8062483,0.9981,-0.0032,0.004,0.0616,0.0227,0.0015,0.0113,0
8062649,0.9981,-0.0032,0.004,0.0616,0.0186,-0.0122,0.0026,0
8062816,0.9981,-0.0032,0.004,0.0616,-0.0073,-0.003,0.0073,0
8062983,0.9981,-0.0032,0.004,0.0616,-0.0067,0.0031,-0.0088,0
8063150,0.9981,-0.0032,0.0039,0.0616,-0.0008,-0.0052,-0.0086,0
8063316,0.9984,-0.0032,0.004,0.057,-0.0036,0.0001,0.0214,0
8063483,0.9984,-0.0032,0.0039,0.057,0.0072,-0.0041,0.0069,0
8063650,0.9984,-0.0032,0.0039,0.057,0.0091,-0.0046,0.0304,0
8063816,0.9984,-0.0032,0.004,0.057,-0.0005,0.0048,0.0104,0
8063983,1,-0.003,0.0041,0,-0.0096,0.0059,0.0126,0
8064150,1,-0.003,0.0041,0,-0.0261,-0.0064,-0.0236,0
8064316,1,-0.003,0.0041,0,-0.009,-0.0101,-0.0195,0
8064483,1,-0.003,0.0041,0,-0.0144,-0.0089,-0.0236,0
8064650,1,-0.003,0.0041,0,0.002,-0.0042,-0.0057,0
8064816,1,-0.003,0.0041,0,0.0053,-0.0035,0.0145,0
8064983,1,-0.003,0.0041,0,0.0092,-0.0012,0.0117,0
8065150,1,-0.003,0.0041,0,-0.0119,-0.0148,-0.0063,0
8065316,1,-0.003,0.0041,0,-0.017,-0.0154,-0.0065,0
8065483,1,-0.003,0.0041,0,-0.0189,-0.0119,-0.0065,0
8065650,1,-0.003,0.0041,0,-0.0166,0.0002,0.0047,0
8065816,1,-0.003,0.0041,0,0.0104,0.0133,0.0089,0
8065983,1,-0.003,0.0041,0,0.016,0.0051,-0.0014,0
8066150,1,-0.003,0.0041,0,-0.0021,0.0062,-0.0049,0
8066316,1,-0.003,0.0041,0,-0.0058,-0.0134,-0.0173,0
8066483,1,-0.003,0.0041,0,-0.0115,-0.0065,-0.0193,0
8066650,1,-0.003,0.0041,0,-0.009,-0.0116,0.0074,0
8066816,1,-0.003,0.0041,0,0.0026,-0.0088,0.0141,0
8066983,1,-0.003,0.0041,0,-0.0117,0.0027,0.016,0
8067150,1,-0.003,0.0041,0,0.0133,0.0138,0.0034,0
8067316,1,-0.003,0.0041,0,0.0003,0.0084,0.0238,0
8067483,1,-0.003,0.0041,0,-0.0095,-0.0085,0.0259,0
8067650,1,-0.003,0.0041,0,-0.0076,-0.025,-0.0166,0
8067816,1,-0.003,0.0041,0,-0.0287,-0.0132,-0.0146,0
8067983,1,-0.003,0.0041,0,-0.0101,-0.0078,-0.0009,0
8068150,1,-0.003,0.0041,0,0.0068,-0.0004,-0.0106,0
8068316,1,-0.003,0.0041,0,0.0101,0.0049,0.0027,0
8068483,1,-0.003,0.0041,0,0.0112,0.0045,0.0153,0
8068650,1,-0.003,0.0041,0,-0.0045,-0.0255,0.0153,0
8068816,1,-0.003,0.0041,0,-0.0043,-0.0199,0.0008,0
8068983,1,-0.003,0.0041,0,-0.0206,-0.0266,0.0176,0
8069150,1,-0.003,0.0041,0,-0.0119,-0.0065,-0.0013,0
8069316,1,-0.003,0.0041,0,-0.0042,-0.0039,0.0185,0
8069483,1,-0.0029,0.0041,0,0.0148,-0.01,0.0237,0
8069650,1,-0.0029,0.0041,0.0001,0.0137,0.0089,0.0312,0
8069816,1,-0.0029,0.0041,0.0001,0.0064,0.0058,0.0246,0
8069983,1,-0.0029,0.0041,0.0001,-0.0117,0.0042,-0.006,0
8070150,1,-0.0029,0.0041,0.0001,-0.0195,-0.0195,0.0086,0
8070316,1,-0.0029,0.0041,0.0001,-0.0211,-0.009,-0.0022,0
8070483,1,-0.0029,0.0041,0.0001,0.0053,0.0043,-0.0012,0
8070650,1,-0.0029,0.0041,0.0001,0.0044,0.0055,-0.0137,0
8070816,1,-0.0029,0.0041,0.0001,0.0022,-0.001,-0.0007,0
8070983,1,-0.0029,0.0041,0.0001,0.0005,-0.0111,0.0092,0
8071150,1,-0.0029,0.0041,0.0001,-0.013,-0.0083,0.0011,0
8071316,1,-0.0029,0.0041,0.0001,0.0025,-0.0049,-0.0196,0
8071483,1,-0.0029,0.0041,0.0001,0.0011,-0.0169,0.004,0
8071650,1,-0.0029,0.0041,0.0001,0.0033,-0.0093,0.0135,0
8071816,1,-0.0029,0.0041,0.0001,0.0022,0.0065,0.0007,0
8071983,1,-0.0029,0.0041,0.0001,0.0069,0.0042,0.0048,0
8072150,1,-0.0029,0.0041,0.0001,-0.0108,-0.0066,0.0097,0
8072316,1,-0.0029,0.0041,0.0001,-0.0105,-0.0129,0.0054,0
8072483,1,-0.0029,0.0041,0.0001,0.0004,-0.0044,0.0048,0
8072650,1,-0.0029,0.0041,0.0001,-0.0029,-0.0127,0.014,0
8072816,1,-0.0029,0.0041,0.0001,-0.0071,-0.0009,0.0127,0
8072983,1,-0.0029,0.0041,0.0001,0.0005,-0.0047,-0.0043,0
8073150,1,-0.0029,0.0041,0.0001,0.0034,0.0034,0.0117,0
8073316,1,-0.0029,0.0041,0.0001,-0.0026,0.0022,0.0052,0
8073483,1,-0.0029,0.0041,0.0001,-0.0095,-0.0095,-0.0084,0
8073650,1,-0.0029,0.0041,0.0001,-0.0097,-0.0314,0.0036,0
8073816,1,-0.0029,0.0041,0.0001,-0.0041,-0.0292,0.0004,0
8073983,1,-0.0029,0.0041,0.0001,0.0029,-0.0182,0.0071,0
8074150,1,-0.0029,0.0041,0.0001,0.0106,-0.0049,-0.0162,0
8074316,1,-0.0029,0.0041,0.0001,0.0002,-0.0024,0.0689,0
8074483,1,-0.0029,0.0042,0.0001,0.0009,0.005,0.0008,0
8074650,1,-0.0029,0.0042,0.0001,-0.0046,-0.0167,-0.0295,0
8074816,1,-0.0029,0.0042,0.0001,-0.0033,-0.0253,-0.0076,0
8074983,1,-0.0029,0.0042,0.0001,-0.0205,-0.0088,-0.0328,0
8075150,1,-0.0029,0.0042,0.0001,0.0006,0.0021,-0.0071,0
8075316,1,-0.0029,0.0041,0.0001,-0.0006,-0.0166,0.0261,0
8075483,1,-0.0029,0.0041,0.0001,0.0168,-0.0028,0.0351,0
8075650,1,-0.0029,0.0042,0.0001,0.0182,-0.0248,0.0216,0
8075816,1,-0.0029,0.0042,0.0001,0.0005,-0.0216,-0.0049,0
8075983,1,-0.003,0.0042,0.0001,-0.0204,-0.0242,0.0097,0
8076150,1,-0.003,0.0042,0.0002,-0.0241,0.0057,0.0072,0
8076316,1,-0.003,0.0042,0.0002,0.0104,-0.0025,-0.0019,0
8076483,1,-0.003,0.0042,0.0002,0.0244,0.0027,0.0708,0
8076650,1,-0.003,0.0042,0.0002,0.0095,-0.0186,0.0138,0
8076816,1,-0.003,0.0042,0.0002,-0.006,-0.0275,-0.0139,0
8076983,1,-0.003,0.0042,0.0002,-0.0289,-0.009,0.0297,0
8077150,1,-0.0031,0.0043,0.0002,-0.0113,0.0178,-0.0224,0
8077316,1,-0.0031,0.0043,0.0002,-0.0108,0.0156,-0.0212,0
8077483,1,-0.0031,0.0043,0.0002,-0.0006,-0.0175,-0.0196,0
8077650,1,-0.0031,0.0043,0.0002,0.0238,-0.013,-0.0248,0
8077816,1,-0.0031,0.0043,0.0002,-0.0136,0.0074,0.0104,0
8077983,1,-0.0031,0.0043,0.0002,-0.0344,-0.0039,-0.001,0
8078150,1,-0.0031,0.0043,0.0002,-0.0126,-0.0123,-0.0237,0
8078316,1,-0.0031,0.0043,0.0002,0.0142,0.0013,0.0206,0
8078483,1,-0.0031,0.0043,0.0002,0.0041,-0.0181,-0.0147,0
8078650,1,-0.0031,0.0043,0.0002,0.0045,-0.0053,0.0206,0
8078816,1,-0.0031,0.0043,0.0002,-0.0004,-0.0047,0.0185,0
8078983,1,-0.0031,0.0043,0.0002,-0.0108,0.0032,-0.0293,0
8079150,1,-0.0031,0.0043,0.0001,-0.0138,0.0036,0.0079,0
8079316,1,-0.0031,0.0043,0.0001,-0.0018,0.0066,-0.0141,0
8079483,1,-0.0031,0.0043,0.0001,0.0026,0.0058,0.0133,0
8079650,1,-0.0031,0.0043,0.0001,0.0157,-0.0263,0.0507,0
8079817,1,-0.0031,0.0043,0.0001,0.011,0.0026,0.0089,0
8079983,1,-0.0031,0.0043,0.0001,0.0075,-0.0009,0.0061,0
8080150,1,-0.0031,0.0043,0.0001,-0.003,0.0084,0.0221,0
8080317,1,-0.0031,0.0043,0.0001,-0.0128,-0.0113,-0.0382,0
8080483,1,-0.0031,0.0043,0.0001,0.0012,-0.0003,0.0133,0
8080650,1,-0.0031,0.0043,0.0001,0.0024,-0.0098,0.022,0
8080817,1,-0.0031,0.0043,0.0001,-0.0006,-0.0255,-0.0049,0
8080983,1,-0.0031,0.0043,0.0001,0.0178,-0.0089,0.0037,0
8081150,1,-0.0031,0.0043,0.0001,-0.0045,0.0134,-0.0054,0
8081317,1,-0.0031,0.0043,0.0001,-0.0118,0.007,0.0042,0
8081483,1,-0.0031,0.0043,0.0002,-0.0088,-0.0027,-0.0018,0
8081650,1,-0.0031,0.0043,0.0001,-0.0129,-0.0057,0.0096,0
8081817,1,-0.0031,0.0043,0.0001,0.0065,-0.0259,0.0112,0
8081983,1,-0.0031,0.0043,0.0002,-0.0072,-0.0104,0.0266,0
8082150,1,-0.0031,0.0043,0.0002,-0.0013,-0.003,-0.0059,0
8082317,1,-0.0031,0.0043,0.0002,0.0074,0.0025,-0.0012,0
8082483,1,-0.0031,0.0043,0.0002,-0.0071,0.0082,0.0158,0
8082650,1,-0.0031,0.0043,0.0002,-0.0017,-0.0085,-0.005,0
8082817,1,-0.0031,0.0043,0.0002,-0.0128,-0.003,0.0161,0
8082983,1,-0.0031,0.0043,0.0002,-0.0012,-0.0189,-0.0079,0
8083150,1,-0.0031,0.0043,0.0002,0.0102,-0.003,0.0273,0
8083317,1,-0.0031,0.0043,0.0002,-0.0016,0.0085,0.021,0
8083483,1,-0.0031,0.0043,0.0002,-0.0154,0.0006,-0.0122,0
8083650,1,-0.0031,0.0043,0.0002,-0.0064,-0.0043,-0.0058,0
8083817,1,-0.0031,0.0043,0.0002,-0.0043,-0.0093,0.0091,0
8083983,1,-0.0031,0.0043,0.0002,0.0023,-0.0203,0.0028,0
8084150,1,-0.0031,0.0043,0.0002,-0.0154,-0.0084,-0.0032,0
8084317,1,-0.0031,0.0043,0.0002,-0.0092,-0.0035,0.0148,0
8084483,1,-0.0031,0.0043,0.0002,-0.0026,0.0147,0.0108,0
8084650,1,-0.0031,0.0044,0.0002,0.0114,-0.0063,0.0361,0
8084817,1,-0.0031,0.0043,0.0002,-0.0023,-0.0049,0.0195,0
8084983,1,-0.0031,0.0044,0.0002,-0.0071,-0.0046,0.0042,0
8085150,1,-0.0031,0.0044,0.0002,0.0116,-0.0153,0.014,0
8085317,1,-0.0031,0.0044,0.0002,0.0051,-0.0023,-0.0007,0
8085483,1,-0.0031,0.0044,0.0002,0.013,0.0155,0.0136,0
8085650,1,-0.0031,0.0044,0.0002,0.0032,0,0.0319,0
8085817,1,-0.0031,0.0044,0.0002,-0.0031,-0.0203,0.0119,0
8085983,1,-0.0031,0.0044,0.0002,0.0007,-0.0173,0.0156,0
8086150,1,-0.0031,0.0044,0.0002,-0.0088,-0.0036,-0.0064,0
8086317,1,-0.0031,0.0044,0.0002,0.0058,-0.0127,-0.0212,0
8086483,1,-0.0031,0.0044,0.0002,-0.0076,-0.0014,0.0011,0
8086650,1,-0.0031,0.0044,0.0002,-0.0188,0.011,0.0216,0
8086817,1,-0.0031,0.0044,0.0002,0.0005,-0.0055,0.0054,0
8086983,1,-0.0031,0.0044,0.0002,-0.0134,-0.0195,0.0114,0
8087150,1,-0.0031,0.0044,0.0002,0.0019,-0.0085,-0.0143,0
8087317,1,-0.0031,0.0044,0.0002,0.0068,-0.0088,0.0185,0
8087483,1,-0.0031,0.0044,0.0002,-0.0047,-0.0133,-0.0058,0
8087650,1,-0.0031,0.0044,0.0002,0.0035,0.0234,0.0232,0
8087817,1,-0.0031,0.0044,0.0002,0.0004,0.0111,0.0159,0
8087983,1,-0.0031,0.0044,0.0002,0.0059,-0.0054,0.016,0
8088150,1,-0.0031,0.0044,0.0002,0.0093,-0.0142,0.025,0
8088317,1,-0.0031,0.0044,0.0002,-0.0075,-0.0202,0.0187,0
8088483,1,-0.0031,0.0044,0.0002,-0.016,-0.0104,0.0141,0
8088650,1,-0.0031,0.0044,0.0002,0.0024,-0.0071,-0.0163,0
8088817,1,-0.0031,0.0044,0.0002,0.0012,-0.0055,-0.0159,0
8088983,1,-0.0031,0.0044,0.0002,-0.0013,-0.0187,0.0113,0
8089150,1,-0.0031,0.0044,0.0002,0.004,-0.0117,0.0214,0
8089317,1,-0.0031,0.0044,0.0002,0.0061,-0.025,-0.0115,0
8089483,1,-0.0031,0.0044,0.0002,-0.0099,-0.0089,-0.0246,0
8089650,1,-0.0031,0.0044,0.0002,-0.0049,-0.0049,-0.006,0
8089817,1,-0.0031,0.0044,0.0002,-0.0024,-0.0068,-0.0131,0
8089983,1,-0.0031,0.0044,0.0002,0.0054,-0.0088,0.0243,0
8090150,1,-0.0031,0.0044,0.0002,0.0072,-0.0065,0.025,0
8090317,1,-0.0031,0.0044,0.0002,0.0015,-0.0007,0.0146,0
8090483,1,-0.0031,0.0044,0.0002,-0.0029,-0.0018,0.0152,0
8090650,1,-0.0031,0.0044,0.0002,0.0026,-0.0065,0.0208,0
8090817,1,-0.0031,0.0044,0.0002,0.0028,-0.0067,0.0223,0
8090983,1,-0.0031,0.0044,0.0002,-0.0026,-0.004,0.0303,0
8091150,1,-0.0031,0.0044,0.0002,-0.0004,0.0062,0.0339,0
8091317,1,-0.0031,0.0044,0.0002,0.0014,0.0044,0.0078,0
8091483,1,-0.0031,0.0044,0.0002,0.0105,-0.0094,0.0101,0
8091650,1,-0.0031,0.0044,0.0002,-0.0114,-0.01,0.0117,0
8091817,1,-0.0031,0.0044,0.0003,-0.0098,0.0055,0.0196,0
8091983,1,-0.0031,0.0044,0.0002,-0.0012,0.0064,0.0141,0
8092150,1,-0.0031,0.0044,0.0003,-0.0024,-0.0101,-0.0159,0
8092317,1,-0.0032,0.0044,0.0003,0.0042,-0.0215,0.0168,0
8092483,1,-0.0032,0.0044,0.0002,0.0132,-0.0056,-0.0137,0
8092650,1,-0.0032,0.0043,0.0002,0.0084,0.0002,-0.0009,0
8092817,1,-0.0032,0.0044,0.0002,-0.0035,0.0176,0.0019,0
8092983,1,-0.0032,0.0044,0.0003,0.0114,-0.0056,-0.0199,0
8093150,1,-0.0032,0.0044,0.0003,-0.0029,-0.0096,0.0117,0
8093317,1,-0.0032,0.0043,0.0003,-0.0007,-0.01,0.0146,0
8093483,1,-0.0032,0.0044,0.0003,-0.0129,0.0009,0.0051,0
8093650,1,-0.0032,0.0044,0.0003,-0.0016,0.0018,0.0162,0
8093817,1,-0.0032,0.0044,0.0003,0.0012,0.0022,-0.0111,0
8093983,1,-0.0032,0.0044,0.0003,0.0076,0.0078,0.0345,0
8094150,1,-0.0032,0.0044,0.0003,-0.0125,-0.009,0.021,0
8094317,1,-0.0032,0.0044,0.0003,-0.0068,0.0094,0.0154,0
8094483,1,-0.0032,0.0044,0.0003,-0.0149,-0.0081,0.0178,0
8094650,1,-0.0032,0.0044,0.0003,0.0043,-0.0007,0.005,0
8094817,1,-0.0032,0.0044,0.0003,-0.0015,-0.0125,-0.0048,0
8094983,1,-0.0032,0.0044,0.0003,0.0041,-0.0079,0.0153,0
8095150,1,-0.0032,0.0044,0.0003,0.0038,-0.0065,0.0033,0
8095317,1,-0.0032,0.0044,0.0003,-0.0031,-0.0098,0.0233,0
8095483,1,-0.0032,0.0044,0.0003,0.0084,-0.0126,-0.0142,0
8095650,1,-0.0032,0.0044,0.0003,-0.0086,-0.0042,-0.009,0
8095817,1,-0.0032,0.0044,0.0003,-0.0055,-0.0036,0.016,0
8095983,1,-0.0031,0.0043,0.0003,-0.0051,-0.0111,0.0174,0
8096150,1,-0.0031,0.0043,0.0003,0.0068,0.0027,-0.0046,0
8096317,1,-0.0031,0.0043,0.0003,0.0046,-0.0098,0.0185,0
8096484,1,-0.0031,0.0043,0.0003,-0.0047,0.0055,0.0101,0
8096650,1,-0.0031,0.0043,0.0003,-0.0106,-0.016,0.0174,0
8096817,1,-0.0031,0.0043,0.0003,-0.0084,-0.0191,0.0373,0
8096984,1,-0.0031,0.0043,0.0003,-0.0027,-0.0099,0.0069,0
8097150,1,-0.0031,0.0043,0.0003,-0.0127,-0.0093,0.0145,0
8097317,1,-0.0031,0.0043,0.0003,-0.0147,0.0017,0.0043,0
8097484,1,-0.0031,0.0043,0.0003,-0.0101,-0.024,0.0141,0
8097650,1,-0.0031,0.0043,0.0003,-0.002,-0.0206,0.0166,0
8097817,1,-0.0031,0.0043,0.0003,-0.0016,-0.0053,0.0075,0
8097984,1,-0.0031,0.0043,0.0003,-0.002,-0.0104,-0.0038,0
8098150,1,-0.0031,0.0043,0.0003,-0.0019,-0.0058,0.005,0
8098317,1,-0.0031,0.0043,0.0003,0.0009,-0.0012,0.0127,0
8098484,1,-0.0031,0.0043,0.0003,-0.0098,-0.0095,0.0133,0
8098650,1,-0.0031,0.0043,0.0003,-0.0122,-0.0122,-0.0036,0
8098817,1,-0.0031,0.0043,0.0003,-0.0034,-0.0111,0.0056,0
8098984,1,-0.0031,0.0043,0.0003,-0.0086,-0.0083,0.0088,0
8099150,1,-0.0031,0.0043,0.0003,0.0011,0.0088,0.0066,0
8099317,1,-0.0031,0.0043,0.0003,0.0029,0.0048,0.0047,0
8099484,1,-0.0031,0.0043,0.0003,-0.0124,-0.0034,0.0113,0
8099650,1,-0.0031,0.0043,0.0003,0.0035,-0.005,0.0081,0
8099817,1,-0.0031,0.0043,0.0003,-0.0091,-0.0104,-0.0001,0
8099984,1,-0.0031,0.0043,0.0003,-0.0168,-0.0132,-0.0224,0
8100150,1,-0.0031,0.0043,0.0003,-0.0039,-0.0058,-0.0095,0
8100317,1,-0.0031,0.0043,0.0003,-0.0165,-0.0138,0.0161,0
8100484,1,-0.0031,0.0043,0.0003,0.0016,0.0058,-0.0178,0
8100650,1,-0.0031,0.0043,0.0003,-0.0047,-0.0028,0.0203,0
8100817,1,-0.0031,0.0043,0.0003,0.0093,-0.0117,-0.0201,0
8100984,1,-0.0031,0.0043,0.0003,-0.0093,-0.0024,0.011,0
8101150,1,-0.0031,0.0043,0.0003,-0.0003,-0.0012,-0.0083,0
8101317,1,-0.0031,0.0043,0.0003,-0.004,0.0057,-0.0091,0
8101484,1,-0.0031,0.0043,0.0003,0.0017,-0.0017,-0.0226,0
8101650,1,-0.0031,0.0043,0.0003,-0.0036,0.0001,0.0165,0
8101817,1,-0.0031,0.0043,0.0003,0.0046,-0.0093,-0.0186,0
8101984,1,-0.0031,0.0043,0.0003,-0.0099,-0.0129,0.0084,0
8102150,1,-0.0031,0.0043,0.0003,-0.016,0.0016,0.0018,0
8102317,1,-0.0031,0.0043,0.0003,-0.0021,0.0079,-0.0027,0
8102484,1,-0.0031,0.0043,0.0003,-0.0141,-0.0032,0.0022,0
8102650,1,-0.0031,0.0043,0.0003,-0.0049,0.0019,0.0029,0
8102817,1,-0.0031,0.0043,0.0003,-0.0012,-0.0014,-0.0133,0
8102984,1,-0.0031,0.0043,0.0003,-0.0073,-0.0142,0.0207,0
8103150,1,-0.0031,0.0043,0.0003,-0.0047,-0.0089,-0.0192,0
8103317,1,-0.0031,0.0043,0.0003,-0.0057,0.0002,0.0177,0
8103484,1,-0.0031,0.0044,0.0003,-0.0166,0.0045,0.012,0
8103650,1,-0.0031,0.0043,0.0003,-0.0022,0.0035,-0.009,0
8103817,1,-0.0031,0.0043,0.0003,0.0057,-0.0208,0.0054,0
8103984,1,-0.0031,0.0043,0.0003,0.0125,-0.0081,0.0052,0
8104150,1,-0.0031,0.0043,0.0003,0.0132,0.0077,0.0057,0
8104317,1,-0.0031,0.0043,0.0003,0.0176,-0.0043,-0.0025,0
8104484,1,-0.0031,0.0043,0.0003,-0.0095,-0.0028,-0.0023,0
8104650,1,-0.0031,0.0043,0.0003,0.0081,0.0098,0.0003,0
8104817,1,-0.0031,0.0043,0.0003,-0.0135,0.0112,-0.0093,0
8104984,1,-0.0031,0.0043,0.0003,-0.0007,-0.0064,0.0108,0
8105150,1,-0.0031,0.0043,0.0003,-0.0015,-0.0088,0.0198,0
8105317,1,-0.0031,0.0043,0.0003,-0.006,-0.0201,0.0078,0
8105484,1,-0.0031,0.0043,0.0003,-0.003,0.0022,-0.0031,0
8105650,1,-0.0031,0.0044,0.0003,-0.0135,-0.0061,0.0135,0
8105817,1,-0.0031,0.0044,0.0003,-0.0062,-0.0098,0.0207,0
8105984,1,-0.0031,0.0043,0.0003,-0.0031,-0.0042,0.0084,0
8106150,1,-0.0031,0.0043,0.0003,0.0016,-0.0133,0.0144,0
8106317,1,-0.0031,0.0043,0.0003,0.0186,-0.0154,0.0198,0
8106484,1,-0.0031,0.0043,0.0003,0,0.0041,-0.0178,0
8106650,1,-0.0031,0.0043,0.0003,-0.0066,-0.0089,-0.0063,0
8106817,1,-0.0031,0.0043,0.0003,0.0086,-0.0179,-0.0036,0
8106984,1,-0.0031,0.0043,0.0003,-0.001,-0.0082,0.0212,0
8107150,1,-0.0031,0.0043,0.0003,0.0023,-0.0063,-0.0013,0
8107317,1,-0.0031,0.0044,0.0003,-0.005,0.0031,0.0029,0
8107484,1,-0.0031,0.0044,0.0003,-0.0002,0.0032,-0.0032,0
8107650,1,-0.0031,0.0044,0.0003,-0.0013,0.0009,0.0072,0
8107817,1,-0.0031,0.0044,0.0003,-0.0008,-0.0011,-0.0059,0
8107984,1,-0.0031,0.0044,0.0003,0.0049,-0.0136,-0.0177,0
8108150,1,-0.0031,0.0044,0.0003,-0.0028,0.0024,0.0194,0
8108317,1,-0.0031,0.0044,0.0003,-0.0056,-0.008,0.0005,0
8108484,1,-0.0031,0.0044,0.0003,-0.0012,0.007,0.0113,0
8108650,1,-0.0031,0.0044,0.0003,0.006,-0.0067,0.0043,0
8108817,1,-0.0031,0.0044,0.0004,-0.0123,-0.0096,0.0042,0
8108984,1,-0.0031,0.0044,0.0004,-0.0025,-0.0176,0.0311,0
8109150,1,-0.0031,0.0044,0.0003,0.0026,0.0117,0.0119,0
8109317,1,-0.0031,0.0044,0.0003,-0.0041,-0.0065,-0.0049,0
8109484,1,-0.0031,0.0044,0.0003,-0.0026,-0.01,0.0345,0
8109650,1,-0.0031,0.0044,0.0003,0.0038,-0.0067,0.0381,0
8109817,1,-0.0031,0.0044,0.0004,0.003,-0.0033,0.0171,0
8109984,1,-0.0031,0.0044,0.0004,-0.0077,0.0004,0.0036,0
8110150,1,-0.0031,0.0044,0.0004,-0.002,0.0047,-0.0049,0
8110317,1,-0.0031,0.0044,0.0004,0.0021,-0.0008,-0.0099,0
8110484,1,-0.0031,0.0044,0.0004,-0.0043,-0.015,-0.0128,0
8110650,1,-0.0031,0.0044,0.0004,0.0014,-0.0018,-0.0011,0
8110817,1,-0.0031,0.0044,0.0004,0.0024,-0.0045,0.0008,0
8110984,1,-0.0031,0.0044,0.0004,-0.0001,0.0023,0.0024,0
8111150,1,-0.0031,0.0044,0.0004,-0.0023,-0.0016,0.0149,0
8111317,1,-0.0031,0.0044,0.0004,0.002,-0.0135,0.0268,0
8111484,1,-0.0031,0.0044,0.0004,-0.0131,-0.008,0.011,0
8111650,1,-0.0031,0.0044,0.0004,0.0034,-0.005,-0.0301,0
8111817,1,-0.0031,0.0044,0.0004,0.008,0.0118,0.003,0
8111984,1,-0.0031,0.0044,0.0004,-0.0066,-0.013,0.0162,0
8112150,1,-0.0031,0.0044,0.0004,0.008,-0.0076,-0.0004,0
8112317,1,-0.0031,0.0043,0.0004,-0.0022,-0.0061,0.0071,0
8112484,1,-0.0031,0.0043,0.0004,0.001,-0.01,0.0104,0
8112650,1,-0.0031,0.0043,0.0004,-0.006,-0.0002,0.016,0
8112817,1,-0.0031,0.0043,0.0004,-0.0003,-0.0087,0.0215,0
8112984,1,-0.0031,0.0043,0.0004,0.0077,-0.0004,0.0223,0
8113151,1,-0.0031,0.0043,0.0004,0.0057,-0.0044,-0.0063,0
8113317,1,-0.0031,0.0043,0.0004,0.0063,-0.0032,-0.0013,0
8113484,1,-0.0031,0.0043,0.0004,-0.0111,-0.0068,-0.0059,0
8113651,1,-0.0031,0.0043,0.0004,-0.0099,-0.001,0.0296,0
8113817,1,-0.0031,0.0043,0.0004,0.0029,-0.0041,0.0004,0
8113984,1,-0.0031,0.0043,0.0004,-0.0062,-0.0086,0.0006,0
8114151,1,-0.0031,0.0043,0.0004,-0.0035,-0.0026,-0.0109,0
8114317,1,-0.0031,0.0043,0.0004,0.0134,-0.0172,-0.0102,0
8114484,1,-0.0031,0.0043,0.0004,-0.0057,-0.0139,0.0161,0
8114651,1,-0.0031,0.0043,0.0004,0.0021,-0.0219,0.0069,0
8114817,1,-0.0031,0.0043,0.0004,0.0005,-0.0211,0.0142,0
8114984,1,-0.0031,0.0043,0.0004,0.0044,-0.0036,0.0163,0
8115151,1,-0.0031,0.0043,0.0004,-0.0025,0.0049,-0.0045,0
8115317,1,-0.0031,0.0043,0.0004,-0.0187,-0.0101,0.0162,0
8115484,1,-0.0031,0.0043,0.0004,0.0035,-0.0107,-0.0069,0
8115651,1,-0.0031,0.0043,0.0004,-0.0096,-0.0144,-0.0019,0
8115817,1,-0.0031,0.0043,0.0004,-0.0038,-0.0043,-0.0121,0
8115984,1,-0.0031,0.0043,0.0005,-0.0047,-0.0155,0.0118,0
8116151,1,-0.0031,0.0043,0.0005,0.0052,-0.007,-0.0174,0
8116317,1,-0.0031,0.0043,0.0005,-0.0135,0.0092,-0.0089,0
8116484,1,-0.0031,0.0043,0.0005,-0.0047,-0.0239,0.0165,0
8116651,1,-0.0031,0.0043,0.0005,-0.0097,-0.0056,0.0169,0
8116817,1,-0.0031,0.0043,0.0005,0.0018,-0.0116,0.0053,0
8116984,1,-0.0031,0.0043,0.0005,-0.0011,0.0009,0.0085,0
8117151,1,-0.0031,0.0043,0.0005,-0.0016,-0.023,-0.0054,0
8117317,1,-0.0031,0.0043,0.0005,-0.0009,0.0045,0.0109,0
8117484,1,-0.0031,0.0043,0.0005,0.0158,-0.0084,0.0079,0
8117651,1,-0.0031,0.0043,0.0005,-0.0112,-0.0167,0.0233,0
8117817,1,-0.0031,0.0043,0.0005,0.0028,-0.0171,0.0097,0
8117984,1,-0.0031,0.0043,0.0005,-0.0032,-0.0058,0.003,0
8118151,1,-0.0031,0.0043,0.0005,0.0033,-0.0121,0.0028,0
8118317,1,-0.0031,0.0043,0.0005,-0.0056,-0.0042,0.0032,0
8118484,1,-0.0031,0.0043,0.0005,-0.0031,-0.0039,0.0044,0
8118651,1,-0.0031,0.0043,0.0005,-0.006,0.0041,0.0049,0
8118817,1,-0.0031,0.0043,0.0005,-0.0075,-0.0162,0.0474,0
8118984,1,-0.0031,0.0043,0.0005,-0.0142,-0.0123,-0.0108,0
8119151,1,-0.0031,0.0043,0.0005,-0.0043,-0.0071,-0.0062,0
8119317,1,-0.0031,0.0043,0.0005,-0.003,0.0024,0.002,0
8119484,1,-0.0031,0.0043,0.0005,-0.0164,-0.0142,-0.0053,0
8119651,1,-0.0031,0.0043,0.0006,-0.0034,-0.0105,-0.0026,0
8119817,1,-0.0031,0.0043,0.0005,-0.0029,-0.0125,0.0199,0
8119984,1,-0.0031,0.0042,0.0005,-0.0043,-0.0005,0.0092,0
8120151,1,-0.003,0.0043,0.0005,-0.0018,-0.0163,0.0186,0
8120317,1,-0.0031,0.0042,0.0006,-0.0039,0.0103,-0.0007,0
8120484,1,-0.003,0.0043,0.0006,0.0026,-0.0119,-0.0128,0
8120651,1,-0.0031,0.0043,0.0006,0.0048,-0.0082,-0.0053,0
8120817,1,-0.0031,0.0043,0.0006,-0.0031,0.0002,0.0021,0
8120984,1,-0.0031,0.0042,0.0006,-0.01,-0.0115,0.0208,0
8121151,1,-0.0031,0.0042,0.0006,-0.0127,-0.0085,-0.0002,0
8121317,1,-0.0031,0.0043,0.0006,0.0006,-0.0086,0.0071,0
8121484,1,-0.0031,0.0043,0.0006,-0.0057,0.0091,0.0164,0
8121651,1,-0.0031,0.0043,0.0005,0.0023,-0.0127,0.0251,0
8121817,1,-0.0031,0.0043,0.0005,-0.0041,-0.0035,0.0077,0
8121984,1,-0.0031,0.0043,0.0006,-0.0069,-0.0166,0.007,0
8122151,1,-0.0031,0.0043,0.0006,0.0018,0.0049,0.0231,0
8122317,1,-0.0031,0.0043,0.0006,0.009,0.0007,-0.0132,0
8122484,1,-0.0031,0.0043,0.0006,0.0041,-0.003,0.0234,0
8122651,1,-0.0031,0.0043,0.0006,-0.0157,0.0003,0.0092,0
8122817,1,-0.0031,0.0043,0.0006,-0.0114,-0.0042,0.025,0
8122984,1,-0.0031,0.0043,0.0006,-0.0138,0.0157,0.005,0
8123151,1,-0.0031,0.0043,0.0006,0.0027,0.0034,-0.008,0
8123317,1,-0.0031,0.0043,0.0006,0.0043,0.0026,0.0163,0
8123484,1,-0.0031,0.0043,0.0006,0.0119,-0.014,-0.0026,0
8123651,1,-0.0031,0.0043,0.0006,-0.0048,-0.0135,0.0027,0
8123817,1,-0.0031,0.0043,0.0006,-0.007,-0.0038,-0.0086,0
8123984,1,-0.0031,0.0043,0.0006,-0.0141,-0.0102,0.0086,0
8124151,1,-0.0031,0.0043,0.0006,-0.0129,-0.0137,0.0139,0
8124317,1,-0.0031,0.0043,0.0006,-0.0012,-0.0112,0.0004,0
8124484,1,-0.0031,0.0043,0.0006,-0.0119,-0.0029,-0.0105,0
8124651,1,-0.0031,0.0043,0.0006,-0.0084,-0.0071,0.0071,0
8124817,1,-0.0031,0.0043,0.0006,-0.0024,0.0019,0.0191,0
8124984,1,-0.0031,0.0043,0.0006,-0.0077,-0.0049,0.0061,0
8125151,1,-0.0031,0.0043,0.0006,-0.0026,-0.001,-0.0029,0
8125317,1,-0.0031,0.0043,0.0006,0.004,0.0059,-0.0137,0
8125484,1,-0.0031,0.0043,0.0006,0.0067,-0.0085,-0.0042,0
8125651,1,-0.0031,0.0043,0.0006,0.0062,-0.0042,-0.0074,0
8125817,1,-0.0031,0.0043,0.0006,0.0006,0.0007,-0.0017,0
8125984,1,-0.0031,0.0043,0.0006,0.0088,-0.0033,0.0145,0
8126151,1,-0.0031,0.0043,0.0006,-0.0001,0.0013,0.0059,0
8126317,1,-0.0031,0.0043,0.0006,-0.0065,0.0051,0.0118,0
8126484,1,-0.0031,0.0043,0.0006,-0.0068,-0.0014,0.0084,0
8126651,1,-0.0031,0.0043,0.0006,0.0024,-0.0131,0.0353,0
8126817,1,-0.0031,0.0043,0.0006,0.0017,-0.0027,-0.006,0
8126984,1,-0.0031,0.0043,0.0006,0.0048,-0.0019,-0.0003,0
8127151,1,-0.0031,0.0043,0.0006,-0.0117,-0.0026,0.0124,0
8127317,1,-0.0031,0.0043,0.0006,0.0033,-0.0013,0.0169,0
8127484,1,-0.0031,0.0043,0.0006,-0.0094,-0.0065,0.0058,0
8127651,1,-0.0031,0.0043,0.0006,0.0019,-0.0014,0.0002,0
8127817,1,-0.0031,0.0043,0.0006,-0.0001,-0.0061,-0.0018,0
8127984,1,-0.0031,0.0043,0.0006,-0.0118,-0.0067,0.0107,0
8128151,1,-0.0031,0.0043,0.0006,-0.0002,-0.0036,0.0009,0
8128317,1,-0.0031,0.0043,0.0006,0.0012,0.0026,0.0037,0
8128484,1,-0.0031,0.0043,0.0006,0.0023,-0.005,-0.0125,0
8128651,1,-0.0031,0.0043,0.0006,0.0096,-0.0052,0.0044,0
8128817,1,-0.0031,0.0043,0.0006,-0.0009,0.0034,-0.0088,0
8128984,1,-0.0031,0.0043,0.0007,-0.0111,-0.0098,-0.0218,0
8129151,1,-0.0031,0.0043,0.0007,0.0018,-0.0039,0.0092,0
8129317,1,-0.0031,0.0043,0.0007,-0.0024,-0.0105,-0.0032,0
8129484,1,-0.0031,0.0043,0.0007,0.0014,-0.0053,0.0151,0
8129651,1,-0.0031,0.0043,0.0007,0.0053,0.0135,-0.0117,0
8129818,1,-0.0031,0.0043,0.0006,0.0048,-0.0007,-0.0046,0
8129984,1,-0.0031,0.0043,0.0007,0.0127,-0.007,-0.0218,0
8130151,1,-0.0031,0.0043,0.0007,0.0009,-0.0022,0.0123,0
8130318,1,-0.0032,0.0043,0.0007,-0.0018,-0.0182,0,0
8130484,1,-0.0032,0.0043,0.0007,0.0046,-0.0086,0.0028,0
8130651,1,-0.0032,0.0043,0.0007,0.0021,0.0004,-0.0037,0
8130818,1,-0.0032,0.0043,0.0007,-0.0049,-0.007,0.0078,0
8130984,1,-0.0032,0.0043,0.0006,-0.0128,-0.003,-0.0192,0
8131151,1,-0.0032,0.0043,0.0006,-0.0017,0.0009,-0.0005,0
8131318,1,-0.0032,0.0043,0.0006,-0.0022,-0.0022,0.0025,0
8131484,1,-0.0032,0.0043,0.0007,-0.0062,0.0018,-0.0267,0
8131651,1,-0.0032,0.0043,0.0007,0.0011,0.0036,0.0246,0
8131818,1,-0.0032,0.0043,0.0007,0.0042,-0.0066,0.0006,0
8131984,1,-0.0032,0.0043,0.0007,0.0083,-0.0013,0.0153,0
8132151,1,-0.0032,0.0043,0.0007,-0.0024,-0.0004,0.0123,0
8132318,1,-0.0032,0.0042,0.0007,-0.013,-0.0043,-0.0194,0
8132484,1,-0.0032,0.0043,0.0007,-0.0081,0.0014,-0.0069,0
8132651,1,-0.0032,0.0042,0.0007,-0.0003,0.0089,0.0066,0
8132818,1,-0.0032,0.0042,0.0007,0.0008,-0.0067,-0.0066,0
8132984,1,-0.0032,0.0042,0.0007,0.0012,-0.0013,-0.0089,0
8133151,1,-0.0032,0.0042,0.0007,0.0013,-0.0083,0.0049,0
8133318,1,-0.0032,0.0042,0.0007,-0.0056,-0.0035,0.0255,0
8133484,1,-0.0032,0.0042,0.0007,-0.011,-0.0049,0.011,0
8133651,1,-0.0032,0.0042,0.0007,-0.0007,-0.0008,0.0106,0
8133818,1,-0.0032,0.0042,0.0007,0.0063,-0.0053,0.0226,0
8133984,1,-0.0032,0.0042,0.0007,-0.0021,0.003,0.0072,0
8134151,1,-0.0032,0.0042,0.0007,-0.0077,-0.0071,0.0039,0
8134318,1,-0.0032,0.0042,0.0007,-0.0015,-0.0005,0.026,0
8134484,1,-0.0032,0.0042,0.0007,0.0055,-0.0096,0.0231,0
8134651,1,-0.0032,0.0042,0.0007,-0.0019,-0.0046,0.0133,0
8134818,1,-0.0032,0.0042,0.0007,-0.0031,-0.0133,0.0073,0
8134984,1,-0.0032,0.0042,0.0007,-0.0026,-0.0012,0.0112,0
8135151,1,-0.0032,0.0042,0.0007,0.004,0.0009,0.0331,0
8135318,1,-0.0032,0.0042,0.0007,0.0001,0.0048,-0.0092,0
8135484,1,-0.0032,0.0042,0.0007,0.005,-0.0062,0.0056,0
8135651,1,-0.0032,0.0042,0.0007,0.0028,-0.0121,0.0017,0
8135818,1,-0.0032,0.0042,0.0007,0.005,-0.0017,0.0143,0
8135984,1,-0.0032,0.0043,0.0006,-0.0022,-0.0097,0.0043,0
8136151,1,-0.0032,0.0043,0.0006,0.008,0.0068,-0.0039,0
8136318,1,-0.0032,0.0043,0.0006,-0.0018,-0.0016,-0.011,0
8136484,1,-0.0032,0.0043,0.0006,0.0018,0.0012,-0.0095,0
8136651,1,-0.0032,0.0043,0.0006,0.0001,0.0048,0.0205,0
8136818,1,-0.0032,0.0043,0.0006,0.0057,-0.0001,0.0113,0
8136984,1,-0.0032,0.0043,0.0006,-0.004,-0.0149,-0.0152,0
8137151,1,-0.0032,0.0043,0.0006,0.0056,-0.0191,0.0055,0
8137318,1,-0.0032,0.0043,0.0006,0.0039,0.0042,-0.0158,0
8137484,1,-0.0032,0.0043,0.0006,-0.0029,-0.002,0.0068,0
8137651,1,-0.0032,0.0043,0.0006,-0.0015,-0.0037,-0.0119,0
8137818,1,-0.0032,0.0043,0.0006,0.0093,-0.0097,0.0129,0
8137984,1,-0.0032,0.0043,0.0006,-0.0002,0.0003,0.0009,0
8138151,1,-0.0032,0.0043,0.0007,-0.0012,0.0034,-0.0061,0
8138318,1,-0.0032,0.0043,0.0007,0.0082,-0.0211,0.0096,0
8138484,1,-0.0032,0.0043,0.0007,-0.0004,0.0054,0.0113,0
8138651,1,-0.0032,0.0043,0.0007,0.0031,-0.0129,-0.0126,0
8138818,1,-0.0032,0.0044,0.0006,-0.0059,-0.0102,-0.0065,0
8138984,1,-0.0032,0.0044,0.0006,-0.0006,-0.0004,-0.0008,0
8139151,1,-0.0032,0.0043,0.0006,-0.0028,0.0066,0.0254,0
8139318,1,-0.0032,0.0043,0.0007,0.0122,-0.0053,0.0151,0
8139484,1,-0.0032,0.0043,0.0007,-0.0088,-0.0066,-0.0005,0
8139651,1,-0.0032,0.0043,0.0007,0.0072,-0.0083,0.0103,0
8139818,1,-0.0032,0.0043,0.0007,0.001,-0.0103,-0.0026,0
8139984,1,-0.0032,0.0043,0.0007,0.0012,0.005,0.0092,0
8140151,1,-0.0032,0.0043,0.0007,-0.012,0.0001,0.0052,0
8140318,1,-0.0032,0.0043,0.0007,0.0038,0.0009,-0.005,0
8140484,1,-0.0032,0.0043,0.0007,0.003,0.0044,-0.0093,0
8140651,1,-0.0032,0.0043,0.0007,-0.001,-0.0006,-0.0051,0
8140818,1,-0.0032,0.0043,0.0007,0.0022,-0.0073,0.0021,0
8140984,1,-0.0032,0.0043,0.0007,-0.0054,-0.0053,0.0014,0
8141151,1,-0.0032,0.0043,0.0007,-0.0058,-0.0053,0.0154,0
8141318,1,-0.0032,0.0043,0.0007,-0.0069,-0.0035,-0.0119,0
8141484,1,-0.0032,0.0043,0.0007,0.0089,-0.0065,0.0074,0
8141651,1,-0.0032,0.0043,0.0007,0.0112,-0.0022,0.0166,0
8141818,1,-0.0032,0.0043,0.0007,-0.0157,-0.0027,-0.0116,0
8141984,1,-0.0032,0.0043,0.0007,-0.0088,0.0042,0.0187,0
8142151,1,-0.0032,0.0043,0.0007,0.0007,0.0034,0.0103,0
8142318,1,-0.0033,0.0043,0.0007,0.0106,-0.0062,0.0044,0
8142484,1,-0.0032,0.0043,0.0007,0.0059,0.0056,0.0073,0
8142651,1,-0.0033,0.0043,0.0007,0.0002,-0.0006,0.0117,0
8142818,1,-0.0033,0.0043,0.0007,-0.0107,-0.0083,-0.0166,0
8142984,1,-0.0033,0.0043,0.0007,-0.0025,0.0049,-0.0035,0
8143151,1,-0.0033,0.0043,0.0007,0.0012,0.0032,-0.0143,0
8143318,1,-0.0033,0.0043,0.0007,0.0022,0.0008,-0.0127,0
8143484,1,-0.0033,0.0043,0.0007,-0.0052,-0.0019,0.0115,0
8143651,1,-0.0033,0.0043,0.0007,-0.002,-0.0144,-0.0288,0
8143818,1,-0.0033,0.0043,0.0007,0.0076,0.0032,0.0135,0
8143984,1,-0.0033,0.0043,0.0007,-0.0003,0.0002,0.0144,0
8144151,1,-0.0033,0.0043,0.0007,-0.001,-0.0244,-0.0155,0
8144318,1,-0.0033,0.0043,0.0007,-0.0027,0.0248,0.0357,0
8144484,1,-0.0033,0.0043,0.0007,0.0196,-0.006,-0.0481,0
8144651,1,-0.0033,0.0043,0.0007,0.0025,-0.0167,0.0517,0
8144818,1,-0.0033,0.0043,0.0008,-0.0076,0.0179,0.0291,0
8144984,1,-0.0033,0.0043,0.0008,0.0093,0.0102,-0.0809,0
8145151,1,-0.0033,0.0043,0.0008,-0.0042,-0.0003,0.0675,0
8145318,1,-0.0033,0.0043,0.0008,-0.0057,-0.0041,0.0124,0
8145484,1,-0.0033,0.0043,0.0008,-0.0106,0.0025,-0.0485,0
8145651,1,-0.0033,0.0043,0.0008,-0.0085,0,0.0658,0
8145818,1,-0.0033,0.0043,0.0008,0.0016,0.0069,-0.0372,0
8145984,1,-0.0033,0.0043,0.0008,-0.0129,0.0037,0.0152,0
8146151,1,-0.0033,0.0043,0.0008,-0.0106,-0.0079,0.0702,0
8146318,1,-0.0033,0.0043,0.0008,0.0052,-0.0038,-0.0676,0
8146485,1,-0.0033,0.0043,0.0008,-0.0057,0.0084,0.0421,0
8146651,1,-0.0033,0.0043,0.0008,-0.0099,-0.0022,-0.0054,0
8146818,1,-0.0033,0.0043,0.0008,-0.0005,0.0003,-0.0354,0
8146985,1,-0.0033,0.0043,0.0008,0.0115,0.0102,0.0751,0
8147151,1,-0.0033,0.0043,0.0008,0.0089,-0.0222,-0.0143,0
8147318,1,-0.0033,0.0043,0.0008,-0.005,-0.01,-0.0571,0
8147485,1,-0.0033,0.0043,0.0008,-0.0137,0.0222,0.0582,0
8147651,1,-0.0033,0.0043,0.0008,-0.0204,0.0088,-0.0438,0
8147818,1,-0.0033,0.0043,0.0008,-0.0032,-0.0121,-0.0308,0
8147985,1,-0.0033,0.0043,0.0008,-0.0076,0.0235,0.077,0
8148151,1,-0.0033,0.0043,0.0008,0.0118,-0.021,-0.1059,0
8148318,1,-0.0033,0.0043,0.0008,-0.0003,-0.0112,0.0831,0
8148485,1,-0.0033,0.0043,0.0008,0.0104,0.0267,0.0599,0
8148651,1,-0.0033,0.0043,0.0008,0.0095,-0.0015,-0.0998,0
8148818,1,-0.0033,0.0043,0.0008,-0.0301,-0.0017,0.0817,0
8148985,1,-0.0033,0.0043,0.0008,-0.0179,0.0259,-0.0358,0
8149151,1,-0.0033,0.0043,0.0008,0.0035,-0.0075,-0.0015,0
8149318,1,-0.0033,0.0043,0.0007,0.0096,-0.0474,0.1057,0
8149485,1,-0.0033,0.0043,0.0007,0.0141,-0.0167,-0.0673,0
8149651,1,-0.0033,0.0043,0.0007,-0.0227,-0.0062,0.0519,0
8149818,1,-0.0033,0.0043,0.0007,-0.0341,0.0277,0.0088,0
8149985,1,-0.0033,0.0043,0.0007,-0.0262,-0.0005,-0.1119,0
8150151,1,-0.0033,0.0043,0.0008,-0.023,-0.0256,0.0263,0
8150318,1,-0.0033,0.0043,0.0008,0.0009,-0.0131,-0.0128,0
8150485,1,-0.0033,0.0043,0.0008,0.017,-0.0175,0.0008,0
8150651,1,-0.0033,0.0042,0.0008,0.0285,0.0378,0.0922,0
8150818,1,-0.0033,0.0042,0.0008,0.0477,0.0863,0.0077,0
8150985,1,-0.0033,0.0043,0.0007,0.0282,0.0534,0.0684,0
8151151,1,-0.0033,0.0043,0.0007,-0.0107,-0.0092,-0.0214,0
8151318,1,-0.0033,0.0043,0.0007,-0.0274,-0.0444,-0.0973,0
8151485,1,-0.0033,0.0043,0.0007,-0.0451,-0.074,0.0114,0
8151651,1,-0.0033,0.0042,0.0007,-0.0187,-0.066,-0.0073,0
8151818,1,-0.0033,0.0042,0.0007,0.0599,0.0511,0.0661,0
8151985,1,-0.0033,0.0042,0.0007,0.0554,0.0767,0.0814,0
8152151,1,-0.0033,0.0043,0.0007,0.0325,0.0498,-0.0064,0
8152318,1,-0.0033,0.0043,0.0007,-0.0327,-0.0045,-0.0329,0
8152485,1,-0.0034,0.0043,0.0007,-0.0759,-0.0699,-0.0277,0
8152651,1,-0.0034,0.0043,0.0007,-0.0848,-0.1139,-0.0632,0
8152818,1,-0.0034,0.0043,0.0008,-0.006,-0.0091,-0.0167,0
8152985,1,-0.0034,0.0042,0.0008,0.0563,0.1021,0.1081,0
8153151,1,-0.0033,0.0043,0.0008,0.1042,0.1142,0.0471,0
8153318,1,-0.0034,0.0043,0.0008,0.0569,0.0562,0.0238,0
8153485,1,-0.0034,0.0043,0.0008,-0.0476,-0.0548,-0.0056,0
8153651,1,-0.0034,0.0043,0.0007,-0.091,-0.1097,-0.1055,0
8153818,1,-0.0034,0.0043,0.0007,-0.1056,-0.1168,-0.1211,0
8153985,1,-0.0034,0.0042,0.0008,-0.0355,0.0128,0.0005,0
8154151,1,-0.0034,0.0042,0.0008,0.0633,0.1645,0.0825,0
8154318,1,-0.0034,0.0042,0.0008,0.0929,0.1081,0.0573,0
8154485,1,-0.0034,0.0042,0.0008,0.1056,0.0272,0.1746,0
8154651,1,-0.0034,0.0043,0.0007,0.0396,-0.0656,0.0054,0
8154818,1,-0.0033,0.0043,0.0007,-0.0971,-0.1466,-0.1828,0
8154985,1,-0.0033,0.0043,0.0007,-0.1282,-0.0638,0.079,0
8155151,1,-0.0033,0.0043,0.0007,-0.0367,0.0678,-0.1545,0
8155318,1,-0.0033,0.0042,0.0007,0.0243,0.0795,0.0103,0
8155485,1,-0.0033,0.0043,0.0007,0.0732,0.088,0.2486,0
8155651,1,-0.0033,0.0043,0.0007,0.1197,0.015,-0.0988,0
8155818,1,-0.0033,0.0043,0.0007,0.0059,-0.1102,0.1343,0
8155985,1,-0.0032,0.0044,0.0007,-0.0881,-0.104,-0.0466,0
8156151,1,-0.0032,0.0044,0.0007,-0.094,0.0095,-0.2063,0
8156318,1,-0.0032,0.0043,0.0007,-0.0806,0.0517,0.073,0
8156485,1,-0.0032,0.0043,0.0007,0.0263,0.06,-0.0655,0
8156651,1,-0.0032,0.0043,0.0007,0.0809,0.0277,0.0073,0
8156818,1,-0.0032,0.0043,0.0007,0.0644,-0.026,0.2354,0
8156985,1,-0.0032,0.0044,0.0007,0.0344,-0.0815,-0.1305,0
8157151,1,-0.0032,0.0044,0.0007,-0.0775,-0.0581,0.023,0
8157318,1,-0.0032,0.0044,0.0007,-0.0888,0.0416,-0.0277,0
8157485,1,-0.0032,0.0044,0.0007,-0.0307,0.0493,-0.1405,0
8157651,1,-0.0032,0.0043,0.0007,0.0091,0.0102,0.1446,0
8157818,1,-0.0032,0.0044,0.0007,0.095,0.0122,0.0328,0
8157985,1,-0.0032,0.0044,0.0007,0.0639,-0.0533,0.0324,0
8158151,1,-0.0032,0.0044,0.0007,-0.0247,-0.0614,0.0708,0
8158318,1,-0.0032,0.0044,0.0007,-0.0573,0.0151,-0.1541,0
8158485,1,-0.0032,0.0044,0.0007,-0.0826,0.0319,-0.0374,0
8158651,1,-0.0032,0.0044,0.0007,-0.0393,-0.0012,-0.0012,0
8158818,1,-0.0032,0.0044,0.0007,0.0595,-0.0154,-0.0152,0
8158985,1,-0.0032,0.0043,0.0007,0.0753,-0.0235,0.1326,0
8159151,1,-0.0032,0.0044,0.0008,0.0615,-0.0275,0.0213,0
8159318,1,-0.0032,0.0044,0.0007,-0.0104,0.0061,-0.0178,0
8159485,1,-0.0032,0.0044,0.0008,-0.0934,0.0289,0.0023,0
8159651,1,-0.0032,0.0044,0.0007,-0.0479,0.006,-0.0993,0
8159818,1,-0.0032,0.0044,0.0007,-0.0023,-0.0135,0.0024,0
8159985,1,-0.0032,0.0044,0.0007,0.0419,-0.034,0.0689,0
8160151,1,-0.0032,0.0044,0.0007,0.0769,-0.0117,0.032,0
8160318,1,-0.0032,0.0044,0.0008,0.0479,0.0006,0.0966,0
8160485,1,-0.0032,0.0044,0.0008,-0.0154,0.0296,-0.0241,0
8160651,1,-0.0032,0.0044,0.0007,-0.0689,0.0611,-0.0777,0
8160818,1,-0.0032,0.0044,0.0008,-0.0671,-0.0007,-0.0401,0
8160985,1,-0.0032,0.0044,0.0008,-0.0269,-0.0435,-0.041,0
8161151,1,-0.0032,0.0043,0.0008,0.0525,-0.039,0.0573,0
8161318,1,-0.0032,0.0043,0.0008,0.0582,-0.0165,0.0968,0
8161485,1,-0.0032,0.0044,0.0008,0.0344,0.0279,-0.006,0
8161651,1,-0.0032,0.0044,0.0008,-0.0333,0.0487,0.0162,0
8161818,1,-0.0032,0.0044,0.0008,-0.0571,0.0286,-0.0461,0
8161985,1,-0.0032,0.0044,0.0008,-0.053,-0.0403,-0.0529,0
8162151,1,-0.0032,0.0044,0.0008,-0.0193,-0.0552,0.0239,0
8162318,1,-0.0032,0.0043,0.0008,0.0262,-0.0254,0.0083,0
8162485,1,-0.0032,0.0043,0.0008,0.0551,0.0299,0.0771,0
8162651,1,-0.0032,0.0044,0.0008,0.0246,0.0455,0.0492,0
8162818,1,-0.0032,0.0044,0.0008,-0.0005,0.0287,-0.0122,0
8162985,1,-0.0032,0.0043,0.0008,-0.0434,-0.0087,0.01,0
8163152,1,-0.0032,0.0043,0.0008,-0.0324,-0.055,-0.0565,0
8163318,1,-0.0032,0.0043,0.0008,-0.0125,-0.0509,-0.0123,0
8163485,1,-0.0032,0.0043,0.0008,0.0339,0.015,0.0638,0
8163652,1,-0.0032,0.0043,0.0008,0.0455,0.0521,0.0372,0
8163818,1,-0.0032,0.0043,0.0008,0.0248,0.052,0.0251,0
8163985,1,-0.0032,0.0043,0.0008,-0.0139,0.0114,0.0201,0
8164152,1,-0.0032,0.0043,0.0008,-0.0353,-0.0448,-0.0435,0
8164318,1,-0.0032,0.0043,0.0008,-0.0402,-0.056,-0.0098,0
8164485,1,-0.0032,0.0043,0.0008,-0.0198,-0.013,-0.0077,0
8164652,1,-0.0032,0.0043,0.0008,0.0292,0.011,0.026,0
8164818,1,-0.0032,0.0043,0.0008,0.0311,0.0489,0.0705,0
8164985,1,-0.0032,0.0043,0.0008,0.0101,0.0347,0.012,0
8165152,1,-0.0032,0.0043,0.0008,-0.0224,-0.0226,-0.0213,0
8165318,1,-0.0032,0.0043,0.0008,-0.0412,-0.0523,-0.017,0
8165485,1,-0.0032,0.0043,0.0008,-0.0344,-0.0464,-0.0332,0
8165652,1,-0.0032,0.0043,0.0009,-0.0005,0.0136,0.0334,0
8165818,1,-0.0032,0.0043,0.0009,0.0187,0.049,0.0252,0
8165985,1,-0.0032,0.0043,0.0009,0.0262,0.0334,0.0068,0
8166152,1,-0.0032,0.0043,0.0009,0.016,0.0077,0.0325,0
8166318,1,-0.0032,0.0043,0.0009,-0.0221,-0.0365,0.0151,0
8166485,1,-0.0032,0.0043,0.0009,-0.0412,-0.0604,-0.0086,0
8166652,1,-0.0032,0.0043,0.0009,-0.0203,-0.0246,-0.0006,0
8166818,1,-0.0032,0.0043,0.0009,-0.0302,0.0275,-0.0115,0
8166985,1,-0.0032,0.0043,0.0009,0.0085,0.0415,0.0332,0
8167152,1,-0.0032,0.0043,0.0009,0.0248,0.0282,0.0344,0
8167318,1,-0.0032,0.0043,0.0009,-0.0073,-0.0144,0.0022,0
8167485,1,-0.0032,0.0043,0.0009,-0.0066,-0.0438,0.0057,0
8167652,1,-0.0032,0.0043,0.0009,-0.0191,-0.0422,-0.036,0
8167818,1,-0.0032,0.0043,0.0009,-0.0246,-0.0037,-0.0305,0
8167985,1,-0.0032,0.0043,0.0009,-0.0014,0.0123,0.0228,0
8168152,1,-0.0032,0.0043,0.0009,0.0245,0.032,0.0094,0
8168318,1,-0.0032,0.0043,0.0009,0.022,0.0027,0.0257,0
8168485,1,-0.0032,0.0043,0.0009,0.0044,-0.0143,0.0185,0
8168652,1,-0.0032,0.0043,0.0009,-0.0155,-0.0474,-0.0186,0
8168818,1,-0.0032,0.0043,0.0009,-0.0409,-0.0273,-0.0092,0
8168985,1,-0.0032,0.0043,0.0009,-0.0273,0.0141,-0.0052,0
8169152,1,-0.0032,0.0043,0.0009,0.0171,0.0146,-0.0048,0
8169318,1,-0.0032,0.0043,0.0009,0.0224,0.0103,0.0356,0
8169485,1,-0.0032,0.0043,0.0009,0.0242,-0.0045,0.0202,0
8169652,1,-0.0032,0.0043,0.0009,0.0013,-0.0178,-0.0054,0
8169818,1,-0.0032,0.0043,0.0009,-0.0209,-0.0368,-0.0045,0
8169985,1,-0.0032,0.0043,0.0009,-0.0251,0.0059,-0.0219,0
8170152,1,-0.0032,0.0043,0.0009,-0.0302,0.022,-0.0053,0
8170318,1,-0.0032,0.0043,0.0009,0.0053,0.0116,0.0237,0
8170485,1,-0.0032,0.0043,0.0009,0.0209,-0.0047,0.0218,0
8170652,1,-0.0032,0.0043,0.0009,0.0141,-0.0162,0.0418,0
8170818,1,-0.0032,0.0043,0.0009,0.0002,-0.027,0.036,0
8170985,1,-0.0032,0.0043,0.0009,-0.0334,-0.0028,-0.0286,0
8171152,1,-0.0032,0.0043,0.0009,-0.0328,0.0067,-0.0155,0
8171318,1,-0.0032,0.0043,0.0009,-0.0112,0.0048,0.0151,0
8171485,1,-0.0032,0.0043,0.0009,0.0051,-0.0051,0.013,0
8171652,1,-0.0032,0.0043,0.0009,0.0233,0.003,0.0082,0
8171818,1,-0.0032,0.0043,0.0009,0.0335,-0.0204,0.0523,0
8171985,1,-0.0031,0.0043,0.0009,0.0063,-0.0128,0.0035,0
8172152,1,-0.0031,0.0043,0.0009,-0.0334,0.0032,-0.0086,0
8172318,1,-0.0031,0.0043,0.0009,-0.0206,0.0141,-0.0082,0
8172485,1,-0.0031,0.0043,0.0009,-0.01,-0.0009,-0.0112,0
8172652,1,-0.0032,0.0043,0.0009,0.0053,-0.0211,0.0197,0
8172818,1,-0.0032,0.0043,0.0009,0.0233,-0.0185,0.0155,0
8172985,1,-0.0032,0.0043,0.0009,0.0184,-0.0089,0.0286,0
8173152,1,-0.0032,0.0043,0.0009,0.0039,0.0035,0.0099,0
8173318,1,-0.0031,0.0043,0.0009,-0.0241,0.0111,-0.0049,0
8173485,1,-0.0031,0.0043,0.0009,-0.0244,-0.0045,-0.0238,0
8173652,1,-0.0031,0.0043,0.0009,0.0056,-0.0105,-0.0015,0
8173818,1,-0.0031,0.0043,0.0009,0.0154,-0.0074,0.0068,0
8173985,1,-0.0031,0.0043,0.0009,0.0086,-0.0206,0.0028,0
8174152,1,-0.0031,0.0043,0.0009,0.0254,-0.008,0.0032,0
8174318,1,-0.0031,0.0043,0.0009,-0.0151,0.0235,0.0068,0
8174485,1,-0.0031,0.0043,0.0009,-0.0149,0.0019,-0.0123,0
8174652,1,-0.0031,0.0043,0.0009,-0.0166,-0.0078,-0.0048,0
8174818,1,-0.0031,0.0043,0.0009,-0.0071,-0.0278,-0.0064,0
8174985,1,-0.0031,0.0043,0.0009,0.0087,-0.023,0.0265,0
8175152,1,-0.0031,0.0042,0.0009,0.013,-0.0065,0.0213,0
8175318,1,-0.0031,0.0042,0.0009,0.0217,0.0148,0.0138,0
8175485,1,-0.0031,0.0043,0.0009,-0.003,-0.0003,-0.013,0
8175652,1,-0.0031,0.0042,0.0009,-0.0117,-0.0015,-0.0116,0
8175818,1,-0.0031,0.0043,0.0009,-0.0102,-0.0162,-0.0171,0
8175985,1,-0.0032,0.0043,0.001,0.0028,-0.0242,0.0052,0
8176152,1,-0.0032,0.0043,0.001,0.0091,-0.0094,0.0133,0
8176318,1,-0.0032,0.0043,0.001,0.0131,0.0081,0.0063,0
8176485,1,-0.0032,0.0043,0.001,0.0024,-0.0006,0.0101,0
8176652,1,-0.0032,0.0043,0.001,-0.0014,0.002,0.0085,0
8176818,1,-0.0032,0.0043,0.001,-0.0115,-0.0064,-0.0014,0
8176985,1,-0.0032,0.0043,0.001,-0.0116,-0.0197,-0.0036,0
8177152,1,-0.0032,0.0043,0.001,-0.0059,-0.0238,0.0057,0
8177318,1,-0.0032,0.0043,0.001,0.008,0.0051,0.0143,0
8177485,1,-0.0032,0.0043,0.001,0.0018,0.0155,0.008,0
8177652,1,-0.0032,0.0043,0.001,0.0023,0.0098,0.0172,0
8177818,1,-0.0032,0.0043,0.001,-0.0057,-0.0052,0.0128,0
8177985,1,-0.0032,0.0043,0.001,-0.0166,-0.0176,-0.0072,0
8178152,1,-0.0032,0.0043,0.001,-0.0059,-0.0134,-0.0128,0
8178318,1,-0.0032,0.0043,0.001,-0.0009,-0.0072,-0.0079,0
8178485,1,-0.0032,0.0043,0.001,-0.0111,0.0155,0.0197,0
8178652,1,-0.0032,0.0043,0.001,0.0002,0.0232,0.0122,0
8178818,1,-0.0032,0.0043,0.001,0.0161,-0.0023,-0.009,0
8178985,1,-0.0032,0.0043,0.001,-0.002,0.0007,-0.0055,0
8179152,1,-0.0032,0.0043,0.001,-0.0166,-0.0185,0.0115,0
8179318,1,-0.0032,0.0043,0.001,-0.0152,-0.0118,0.0065,0
8179485,1,-0.0031,0.0043,0.001,0.0051,0.0003,0.0095,0
8179652,1,-0.0031,0.0043,0.001,0.0127,0.0106,0.0248,0
8179819,1,-0.0031,0.0043,0.001,-0.0028,0.0121,0.031,0
8179985,1,-0.0031,0.0043,0.001,-0.0017,-0.0033,0.0005,0
8180152,1,-0.0032,0.0043,0.001,0.001,-0.0152,0.0083,0
8180319,1,-0.0032,0.0043,0.001,-0.0078,-0.014,0.007,0
8180485,1,-0.0032,0.0043,0.001,-0.0144,-0.0063,-0.0141,0
8180652,1,-0.0032,0.0043,0.001,-0.0046,0.0024,-0.005,0
8180819,1,-0.0032,0.0043,0.001,0.0179,0.0118,0.0341,0
8180985,1,-0.0032,0.0043,0.001,0.0099,0.004,-0.014,0
8181152,1,-0.0032,0.0043,0.001,-0.0002,-0.0307,0.0017,0
8181319,1,-0.0032,0.0043,0.001,-0.0056,0.0004,-0.0165,0
8181485,1,-0.0032,0.0043,0.001,-0.022,-0.0114,-0.0008,0
8181652,1,-0.0032,0.0043,0.001,0.0022,-0.0046,0.0121,0
8181819,1,-0.0032,0.0043,0.001,0.007,0.0113,0.0047,0
8181985,1,-0.0032,0.0043,0.001,0.0095,-0.0043,0.0216,0
8182152,1,-0.0032,0.0043,0.001,0.0158,0.0007,0.0209,0
8182319,1,-0.0032,0.0043,0.001,-0.0051,-0.0204,-0.0124,0
8182485,1,-0.0032,0.0043,0.001,-0.0008,-0.007,0.0007,0
8182652,1,-0.0032,0.0043,0.001,-0.0133,-0.0029,0.0098,0
8182819,1,-0.0032,0.0043,0.001,-0.0062,-0.0054,-0.0057,0
8182985,1,-0.0032,0.0043,0.001,-0.0017,0.003,-0.0055,0
8183152,1,-0.0032,0.0043,0.001,0.0111,-0.0003,0.0166,0
8183319,1,-0.0032,0.0043,0.001,0.0062,-0.0064,0.0198,0
8183485,1,-0.0032,0.0043,0.001,0.0093,-0.0187,0.0078,0
8183652,1,-0.0032,0.0043,0.001,-0.0017,-0.0127,0.0042,0
8183819,1,-0.0032,0.0043,0.001,-0.0145,-0.0002,-0.0401,0
8183985,1,-0.0032,0.0043,0.001,-0.0101,0.0041,-0.004,0
8184152,1,-0.0032,0.0043,0.001,-0.0063,0.0058,0.0189,0
8184319,1,-0.0032,0.0043,0.001,-0.0104,-0.0085,0.0168,0
8184485,1,-0.0032,0.0043,0.001,0.0066,-0.0005,0.0068,0
8184652,1,-0.0032,0.0043,0.001,-0.0088,-0.0029,-0.0064,0
8184819,1,-0.0032,0.0043,0.001,-0.0264,0.0112,-0.0046,0
8184985,1,-0.0032,0.0043,0.001,-0.0004,0.0069,-0.0122,0
8185152,1,-0.0032,0.0043,0.001,-0.013,-0.0132,-0.0179,0
8185319,1,-0.0032,0.0043,0.001,-0.0047,-0.0134,0.0264,0
8185485,1,-0.0032,0.0043,0.001,-0.0004,-0.0068,0.0061,0
8185652,1,-0.0032,0.0043,0.001,-0.0018,-0.0057,0.0131,0
8185819,1,-0.0032,0.0043,0.001,-0.0017,0.0053,0.018,0
8185985,1,-0.0032,0.0043,0.001,-0.01,-0.0094,-0.0014,0
8186152,1,-0.0032,0.0043,0.001,-0.0037,-0.0042,0.0078,0
8186319,1,-0.0032,0.0043,0.001,0.0055,0.0051,0.0114,0
8186485,1,-0.0032,0.0043,0.001,-0.0078,0.0025,0.0206,0
8186652,1,-0.0032,0.0043,0.001,0.0047,-0.0028,-0.0027,0
8186819,1,-0.0032,0.0043,0.001,0.0034,-0.0014,0.0033,0
8186985,1,-0.0032,0.0043,0.001,-0.0116,0.0053,-0.0084,0
8187152,1,-0.0032,0.0043,0.001,-0.0135,0.0056,0.0056,0
8187319,1,-0.0032,0.0043,0.001,-0.0181,-0.0149,-0.0014,0
8187485,1,-0.0032,0.0043,0.001,0.0036,-0.0111,-0.0149,0
8187652,1,-0.0032,0.0043,0.001,0.0011,0.002,-0.0033,0
8187819,1,-0.0032,0.0043,0.001,-0.0001,0.0077,0.0259,0
8187985,1,-0.0032,0.0043,0.001,-0.002,0.0186,-0.0039,0
8188152,1,-0.0032,0.0043,0.001,-0.0105,0.0109,-0.0188,0
8188319,1,-0.0032,0.0043,0.001,-0.0055,0.0001,0.0008,0
8188485,1,-0.0032,0.0043,0.001,-0.004,0.0051,-0.016,0
8188652,1,-0.0032,0.0043,0.001,0.0003,-0.0129,-0.001,0
8188819,1,-0.0032,0.0043,0.001,-0.0027,-0.0019,0.0194,0
8188985,1,-0.0032,0.0043,0.001,-0.0016,0.0017,0.0076,0
8189152,1,-0.0032,0.0043,0.001,0.0019,0.0053,0.0077,0
8189319,1,-0.0032,0.0043,0.001,-0.0071,0.007,0.0062,0
8189485,1,-0.0032,0.0043,0.001,-0.006,-0.0095,0.0143,0
8189652,1,-0.0032,0.0043,0.001,0.0023,-0.0211,0.0024,0
8189819,1,-0.0032,0.0043,0.001,-0.002,-0.004,0.0107,0
8189985,1,-0.0032,0.0043,0.001,-0.0017,0,0.0092,0
8190152,1,-0.0032,0.0043,0.001,0.0029,0.0013,-0.0236,0
8190319,1,-0.0032,0.0043,0.001,-0.0054,-0.0017,-0.0132,0
8190485,1,-0.0032,0.0043,0.001,0.0012,-0.0024,0.0037,0
8190652,1,-0.0032,0.0043,0.001,0.0098,-0.0087,0.0017,0
8190819,1,-0.0032,0.0043,0.001,-0.0048,-0.0035,0.0108,0
8190985,1,-0.0032,0.0043,0.001,0.004,0.001,0.0132,0
8191152,1,-0.0032,0.0043,0.001,-0.0095,0.0106,0.0115,0
8191319,1,-0.0032,0.0043,0.001,-0.0091,0.0046,0.0041,0
8191485,1,-0.0032,0.0043,0.001,0.0024,-0.0041,-0.0154,0
8191652,1,-0.0032,0.0043,0.001,-0.0158,0.0052,0.0202,0
8191819,1,-0.0032,0.0043,0.001,-0.0059,0.0038,-0.0062,0
8191985,1,-0.0032,0.0043,0.001,-0.0058,-0.0045,0.007,0
8192152,1,-0.0032,0.0043,0.001,-0.0009,-0.0032,0.029,0
8192319,1,-0.0032,0.0043,0.001,0.0043,0.0203,0.0195,0
8192485,1,-0.0032,0.0043,0.001,0.0122,-0.0051,0.0031,0
8192652,1,-0.0032,0.0043,0.001,0.0101,0.0041,-0.012,0
8192819,1,-0.0032,0.0043,0.0011,-0.0029,-0.0115,-0.0058,0
8192985,1,-0.0032,0.0043,0.0011,0.0031,-0.0044,-0.0085,0
8193152,1,-0.0032,0.0043,0.001,0.0004,-0.008,-0.013,0
8193319,1,-0.0032,0.0043,0.001,0.0065,-0.0096,0.0021,0
8193485,1,-0.0032,0.0043,0.001,-0.0006,0.014,-0.0079,0
8193652,1,-0.0032,0.0043,0.001,0.0095,-0.0062,0.0101,0
8193819,1,-0.0032,0.0043,0.001,0.0074,-0.0036,0.0035,0
8193985,1,-0.0032,0.0043,0.001,-0.0091,-0.0101,0.0105,0
8194152,1,-0.0032,0.0043,0.001,-0.0027,0.0038,0.0041,0
8194319,1,-0.0032,0.0043,0.001,-0.0045,-0.0022,-0.0267,0
8194485,1,-0.0032,0.0043,0.001,-0.0024,0.0017,0.0024,0
8194652,1,-0.0032,0.0043,0.001,0.0017,0.0005,0.0171,0
8194819,1,-0.0032,0.0043,0.001,0.0037,0.0065,-0.0034,0
8194985,1,-0.0032,0.0043,0.001,0.0113,-0.0101,-0.0033,0
8195152,1,-0.0032,0.0043,0.001,-0.0038,0.0033,0.0095,0
8195319,1,-0.0032,0.0043,0.001,-0.0013,0.0025,0.0024,0
8195485,1,-0.0032,0.0043,0.001,0.0045,0.0169,0.0092,0
8195652,1,-0.0032,0.0043,0.001,0.0013,-0.0019,0.01,0
8195819,1,-0.0032,0.0043,0.001,-0.006,0.0089,-0.012,0
8195985,1,-0.0032,0.0043,0.0011,-0.0003,0.0028,-0.0054,0
8196152,1,-0.0032,0.0043,0.0011,-0.015,-0.0076,0.0091,0
8196319,1,-0.0032,0.0043,0.0011,-0.0027,0.0035,-0.0101,0
8196486,1,-0.0032,0.0043,0.0011,-0.0066,-0.0001,0.0024,0
8196652,1,-0.0032,0.0043,0.0011,-0.0113,-0.0095,-0.0091,0
8196819,1,-0.0032,0.0043,0.0011,-0.0042,-0.0098,-0.0109,0
8196986,1,-0.0032,0.0043,0.0011,0.0098,-0.005,-0.0075,0
8197152,1,-0.0032,0.0043,0.0011,0.0001,0.0041,-0.0061,0
8197319,1,-0.0032,0.0043,0.0011,-0.0039,-0.0021,-0.0037,0
8197486,1,-0.0032,0.0043,0.0011,-0.0124,0.009,-0.0074,0
8197652,1,-0.0032,0.0043,0.0011,0.0031,-0.0041,0.0006,0
8197819,1,-0.0032,0.0043,0.0011,-0.0027,0.0048,0,0
8197986,1,-0.0032,0.0043,0.0011,0.0052,-0.0167,0.0093,0
8198152,1,-0.0032,0.0043,0.0011,0.0081,-0.0042,-0.0065,0
8198319,1,-0.0032,0.0043,0.0011,-0.0075,0.0028,-0.0004,0
8198486,1,-0.0032,0.0043,0.0011,-0.0031,0.002,-0.0138,0
8198652,1,-0.0032,0.0043,0.0011,0.0112,0.0011,0.0174,0
8198819,1,-0.0032,0.0044,0.0011,0.0074,-0.015,-0.0012,0
8198986,1,-0.0032,0.0043,0.0011,-0.0087,-0.0026,0.001,0
8199152,1,-0.0032,0.0044,0.0011,0.0054,0.0028,-0.0045,0
8199319,1,-0.0032,0.0044,0.0011,-0.0094,0.0057,0.0238,0
8199486,1,-0.0032,0.0044,0.0011,-0.0005,0.0023,-0.0119,0
8199652,1,-0.0032,0.0044,0.0011,-0.0075,0.0114,-0.0036,0
8199819,1,-0.0032,0.0044,0.0011,0.0007,-0.0001,-0.0021,0
8199986,1,-0.0032,0.0043,0.0011,-0.0075,0.0017,0.0079,0
8200152,1,-0.0032,0.0044,0.0011,-0.0023,0.0042,0.0006,0
8200319,1,-0.0032,0.0044,0.0011,0.0006,-0.0034,-0.0065,0
8200486,1,-0.0032,0.0043,0.0011,-0.0077,0.0069,-0.0071,0
8200652,1,-0.0032,0.0043,0.0011,-0.0029,-0.0052,-0.0122,0
8200819,1,-0.0032,0.0043,0.0011,-0.0048,0.0141,0.0123,0
8200986,1,-0.0032,0.0043,0.0011,-0.0113,0.0074,-0.005,0
8201152,1,-0.0032,0.0043,0.0011,0.0091,-0.0071,-0.0114,0
8201319,1,-0.0032,0.0043,0.0011,0.0131,0.0006,0.0089,0
8201486,1,-0.0032,0.0043,0.0011,-0.0017,-0.005,-0.0045,0
8201652,1,-0.0032,0.0044,0.0011,-0.0116,-0.0029,-0.0071,0
8201819,1,-0.0032,0.0044,0.0011,0,0.0041,0.0066,0
8201986,1,-0.0032,0.0043,0.0011,0.0034,0.0012,0.0182,0
8202152,1,-0.0032,0.0043,0.0011,-0.0068,0.0078,0.0167,0
8202319,1,-0.0032,0.0043,0.0011,-0.003,0.0103,0.0072,0
8202486,1,-0.0032,0.0043,0.0011,-0.0041,-0.0105,0.0082,0
8202652,1,-0.0032,0.0043,0.0011,0.0019,0.0044,0.0032,0
8202819,1,-0.0032,0.0043,0.0011,-0.0064,0.0083,-0.0078,0
8202986,1,-0.0032,0.0043,0.0011,0.0069,0.0041,0.0091,0
8203152,1,-0.0032,0.0043,0.0011,-0.0093,0.0111,0.0152,0
8203319,1,-0.0032,0.0043,0.0011,-0.0071,0.004,-0.0061,0
8203486,1,-0.0032,0.0043,0.0011,-0.0005,0.0055,0.0184,0
8203652,1,-0.0032,0.0043,0.0011,0.0057,0.0112,0.0073,0
8203819,1,-0.0032,0.0043,0.0011,-0.0054,0.0023,0.01,0
8203986,1,-0.0032,0.0043,0.0011,-0.0016,0.0012,-0.0151,0
8204152,1,-0.0032,0.0043,0.0011,0.0062,0.0067,0.001,0
8204319,1,-0.0032,0.0043,0.0011,-0.014,-0.0058,0.0007,0
8204486,1,-0.0032,0.0043,0.0011,-0.0027,-0.0031,-0.0178,0
8204652,1,-0.0032,0.0043,0.0011,-0.0142,0.0191,0.1193,0
8204819,1,-0.0032,0.0043,0.0011,0.0173,-0.0018,-0.0812,0
8204986,1,-0.0032,0.0043,0.0011,0.0088,-0.0074,-0.0106,0
8205152,1,-0.0032,0.0044,0.0011,-0.0162,0.0029,0.0802,0
8205319,1,-0.0032,0.0043,0.0011,-0.0043,0.0168,-0.0872,0
8205486,1,-0.0032,0.0043,0.0011,-0.0193,-0.0113,0.0548,0
8205652,1,-0.0032,0.0043,0.0011,0.0035,-0.0039,0.0354,0
8205819,1,-0.0032,0.0043,0.0011,0.0076,0.0115,-0.045,0
8205986,1,-0.0032,0.0043,0.0011,0.011,-0.0141,0.047,0
8206152,1,-0.0032,0.0043,0.0011,0.0288,0.0084,0.0229,0
8206319,1,-0.0032,0.0043,0.0011,0.0148,0.0183,0.034,0
8206486,1,-0.0032,0.0044,0.0011,-0.0289,-0.0189,0.0449,0
8206652,1,-0.0032,0.0044,0.0011,-0.0173,-0.0236,-0.0713,0
8206819,1,-0.0032,0.0044,0.0011,-0.0262,-0.0199,-0.0008,0
8206986,1,-0.0032,0.0044,0.0011,-0.0091,-0.0165,0.0035,0
8207152,1,-0.0032,0.0044,0.0011,-0.0125,0.0018,-0.0361,0
8207319,1,-0.0032,0.0044,0.0011,-0.0057,0.0236,0.0842,0
8207486,1,-0.0032,0.0044,0.0011,0.0288,0.0256,-0.019,0
8207652,1,-0.0032,0.0044,0.0011,0.0062,-0.011,-0.1007,0
8207819,1,-0.0032,0.0043,0.0011,-0.0397,-0.0272,0.074,0
8207986,1,-0.0032,0.0043,0.0011,-0.0016,0.0363,0.1189,0
8208152,1,-0.0032,0.0043,0.0011,0.0324,0.0008,-0.1475,0
8208319,1,-0.0032,0.0043,0.0011,0.0134,-0.0101,0.1298,0
8208486,1,-0.0032,0.0044,0.0011,0.0185,0.0305,0.0003,0
8208652,1,-0.0032,0.0044,0.0011,-0.0203,-0.0085,-0.1119,0
8208819,1,-0.0032,0.0044,0.0011,-0.0574,-0.0308,0.0849,0
8208986,1,-0.0032,0.0044,0.0011,-0.0079,0.0083,-0.0961,0
8209152,1,-0.0032,0.0043,0.0011,-0.0049,0.0165,0.0366,0
8209319,1,-0.0032,0.0043,0.0011,0.0067,-0.047,0.0789,0
8209486,1,-0.0032,0.0043,0.0011,0.0479,0.0207,-0.0546,0
8209652,1,-0.0032,0.0043,0.0011,0.0169,0.0355,0.1159,0
8209819,1,-0.0032,0.0043,0.0011,-0.0155,-0.0408,-0.037,0
8209986,1,-0.0032,0.0043,0.0011,-0.0333,0.0021,-0.1224,0
8210152,1,-0.0032,0.0043,0.0011,-0.0272,0.0249,0.0891,0
8210319,1,-0.0032,0.0043,0.001,0.0083,-0.0308,-0.0348,0
8210486,1,-0.0032,0.0043,0.001,0.0221,-0.0119,-0.0488,0
8210652,1,-0.0032,0.0043,0.0011,0.0232,0.0197,0.1236,0
8210819,1,-0.0032,0.0043,0.0011,0.0095,0.0013,-0.0582,0
8210986,1,-0.0032,0.0043,0.0011,-0.0012,-0.0203,-0.016,0
8211152,1,-0.0032,0.0043,0.001,-0.0197,0.0005,0.054,0
8211319,1,-0.0032,0.0043,0.001,-0.0185,-0.0203,-0.0801,0
8211486,1,-0.0032,0.0043,0.0011,-0.0054,-0.015,0.0316,0
8211652,1,-0.0032,0.0043,0.0011,0.0207,0.034,0.0543,0
8211819,1,-0.0032,0.0043,0.0011,0.0156,0.0076,-0.0085,0
8211986,1,-0.0032,0.0043,0.0011,-0.0033,-0.0195,0.0377,0
8212152,1,-0.0032,0.0043,0.0011,-0.0172,0.0105,-0.0272,0
8212319,1,-0.0032,0.0043,0.0011,-0.0075,0.0077,-0.009,0
8212486,1,-0.0032,0.0043,0.0011,-0.0234,-0.0231,-0.0017,0
8212652,1,-0.0032,0.0043,0.0011,-0.0069,-0.0169,-0.0564,0
8212819,1,-0.0032,0.0043,0.0011,0.0043,0.0049,0.0449,0
8212986,1,-0.0032,0.0043,0.0011,0.0148,-0.0034,0.0194,0
8213153,1,-0.0032,0.0043,0.0011,-0.0072,0.0085,-0.0254,0
8213319,1,-0.0032,0.0043,0.0011,0.0031,-0.0045,0.0294,0
8213486,1,-0.0032,0.0043,0.0011,-0.0256,-0.0227,-0.0127,0
8213653,1,-0.0032,0.0043,0.0011,-0.022,-0.0156,-0.0558,0
8213819,1,-0.0032,0.0043,0.0011,0.0069,0.016,0.0614,0
8213986,1,-0.0032,0.0043,0.0011,0.0198,-0.0127,-0.0221,0
8214153,1,-0.0032,0.0043,0.0011,0.0055,0.0114,0.0234,0
8214319,1,-0.0032,0.0043,0.0011,-0.0001,0.0387,0.0457,0
8214486,1,-0.0032,0.0043,0.0011,-0.0066,-0.0159,-0.0392,0
8214653,1,-0.0032,0.0043,0.0011,-0.0198,-0.0275,-0.0188,0
8214819,1,-0.0032,0.0043,0.0011,0.0027,-0.0127,0.0264,0
8214986,1,-0.0032,0.0043,0.0011,0.0019,0.0008,-0.0136,0
8215153,1,-0.0032,0.0043,0.0011,0.0132,0.0153,0.0501,0
8215319,1,-0.0032,0.0043,0.0011,0.0131,0.022,0.012,0
8215486,1,-0.0032,0.0043,0.0011,-0.0118,-0.0057,-0.0001,0
8215653,1,-0.0032,0.0043,0.0011,-0.0143,-0.0115,-0.0171,0
8215819,1,-0.0032,0.0043,0.0011,-0.0178,-0.0085,-0.004,0
8215986,1,-0.0032,0.0043,0.0011,-0.0157,-0.008,-0.0014,0
8216153,1,-0.0032,0.0043,0.0011,-0.0089,0.003,0.0078,0
8216319,1,-0.0032,0.0043,0.0011,0.0143,0.0132,0.0246,0
8216486,1,-0.0032,0.0043,0.0011,0.0121,0.0025,0.0404,0
8216653,1,-0.0032,0.0043,0.0011,-0.0085,0.0075,0.0236,0
8216819,1,-0.0032,0.0043,0.0011,-0.0029,-0.017,0.0047,0
8216986,1,-0.0032,0.0043,0.0012,-0.0194,-0.0212,-0.0308,0
8217153,1,-0.0032,0.0043,0.0012,-0.0095,0.0138,0.0116,0
8217319,1,-0.0033,0.0043,0.0012,-0.0123,0.01,-0.0082,0
8217486,1,-0.0033,0.0043,0.0012,0.0033,0.0124,-0.0258,0
8217653,1,-0.0033,0.0043,0.0012,0.0038,0.0113,0.0926,0
8217819,1,-0.0033,0.0043,0.0012,0.0081,-0.0177,-0.0293,0
8217986,1,-0.0033,0.0043,0.0012,-0.0177,0.006,-0.0429,0
8218153,1,-0.0033,0.0043,0.0012,-0.0241,-0.005,0.0558,0
8218319,1,-0.0033,0.0043,0.0012,-0.0079,0.0016,-0.0845,0
8218486,1,-0.0033,0.0043,0.0012,-0.0174,0.014,0.0192,0
8218653,1,-0.0033,0.0043,0.0012,-0.0095,0.0008,0.0531,0
8218819,1,-0.0033,0.0043,0.0012,0.029,0.0035,-0.0416,0
8218986,1,-0.0033,0.0043,0.0011,0.0073,-0.0103,0.0543,0
8219153,1,-0.0033,0.0043,0.0012,0.0052,-0.0054,0.0032,0
8219319,1,-0.0033,0.0043,0.0012,-0.0069,-0.0027,-0.0377,0
8219486,1,-0.0033,0.0043,0.0011,-0.0213,0.0093,0.041,0
8219653,1,-0.0033,0.0043,0.0011,-0.0105,-0.001,0.0008,0
8219819,1,-0.0033,0.0043,0.0011,0.0008,0.0009,0.0149,0
8219986,1,-0.0033,0.0043,0.0011,-0.001,-0.0004,0.0571,0
8220153,1,-0.0033,0.0043,0.0011,0.0011,-0.0044,-0.0517,0
8220319,1,-0.0033,0.0043,0.0011,0.0018,-0.0115,0.0012,0
8220486,1,-0.0033,0.0043,0.0011,-0.0116,0.0021,0.0254,0
8220653,1,-0.0033,0.0043,0.0011,-0.0188,-0.0072,-0.0461,0
8220819,1,-0.0033,0.0043,0.0011,-0.0027,-0.0107,0.0348,0
8220986,1,-0.0033,0.0043,0.0011,-0.0022,-0.0089,-0.0191,0
8221153,1,-0.0032,0.0043,0.0011,0.0023,-0.0069,0.0008,0
8221319,1,-0.0032,0.0043,0.0011,-0.01,0.0058,0.0321,0
8221486,1,-0.0032,0.0043,0.0011,-0.0057,0.0001,-0.0199,0
8221653,1,-0.0032,0.0043,0.0011,-0.0108,0.0046,-0.0174,0
8221819,1,-0.0032,0.0043,0.0011,-0.0067,-0.0123,0.0151,0
8221986,1,-0.0032,0.0043,0.0011,0.0031,-0.0159,-0.0301,0
8222153,1,-0.0032,0.0043,0.0011,0.005,-0.0034,0.0435,0
8222319,1,-0.0032,0.0043,0.0011,0.0224,-0.0018,0.0521,0
8222486,1,-0.0032,0.0043,0.0011,0.0078,0.0086,-0.0112,0
8222653,1,-0.0032,0.0043,0.0011,-0.0128,0.0091,0.0214,0
8222819,1,-0.0032,0.0043,0.0011,-0.0088,-0.0055,0.0038,0
8222986,1,-0.0032,0.0043,0.0011,-0.0222,-0.0038,-0.0106,0
8223153,1,-0.0032,0.0043,0.0011,0.0049,-0.0057,0.0368,0
8223319,1,-0.0032,0.0044,0.0011,0.0124,-0.0117,-0.0018,0
8223486,1,-0.0032,0.0044,0.0011,-0.0014,0.0031,0.0019,0
8223653,1,-0.0032,0.0044,0.0011,-0.0032,-0.0064,0.0101,0
8223819,1,-0.0032,0.0044,0.0011,-0.0103,-0.0045,-0.0003,0
8223986,1,-0.0032,0.0044,0.0011,-0.0151,0.0027,0.0039,0
8224153,1,-0.0033,0.0044,0.0011,0.0029,-0.0126,-0.0053,0
8224319,1,-0.0033,0.0044,0.0011,0.0043,-0.0088,0.0127,0
8224486,1,-0.0033,0.0044,0.0011,0.0211,-0.0055,0.0289,0
8224653,1,-0.0032,0.0044,0.0011,0.0036,0.0008,0.0182,0
8224819,1,-0.0033,0.0044,0.0011,0.0076,0.0131,-0.0045,0
8224986,1,-0.0033,0.0044,0.0011,0.0024,0.005,-0.0091,0
8225153,1,-0.0033,0.0044,0.0011,-0.0027,-0.0054,-0.0329,0
8225319,1,-0.0033,0.0044,0.0011,-0.0062,-0.0051,0.0133,0
8225486,1,-0.0033,0.0044,0.0011,-0.0033,-0.0102,-0.0003,0
8225653,1,-0.0033,0.0044,0.0011,0.0222,-0.0191,-0.0004,0
8225819,1,-0.0033,0.0044,0.0011,0.0025,0.0034,0.0142,0
8225986,1,-0.0033,0.0044,0.0011,-0.0041,0.0075,-0.0014,0
8226153,1,-0.0032,0.0044,0.0011,-0.0142,0.0129,-0.0061,0
8226319,1,-0.0032,0.0044,0.0011,-0.011,-0.0092,0.0038,0
8226486,1,-0.0032,0.0044,0.0011,-0.0012,-0.0041,0.0053,0
8226653,1,-0.0032,0.0044,0.0011,-0.0027,-0.014,-0.0105,0
8226819,1,-0.0032,0.0044,0.0011,0.0103,-0.001,0.0143,0
8226986,1,-0.0032,0.0044,0.0011,-0.0028,0.0032,0.0029,0
8227153,1,-0.0032,0.0044,0.0011,0.0074,0.0115,0.0195,0
8227319,1,-0.0032,0.0044,0.0011,0.0047,-0.0019,0.0169,0
8227486,1,-0.0032,0.0044,0.0011,-0.0066,-0.0114,-0.0143,0
8227653,1,-0.0032,0.0044,0.0011,0.0024,-0.0108,0.0215,0
8227819,1,-0.0032,0.0044,0.0011,-0.0004,0.0139,0.0105,0
8227986,1,-0.0032,0.0044,0.0011,0.0163,0.0054,0.0062,0
8228153,1,-0.0032,0.0044,0.0011,0.0057,0.0074,0.0113,0
8228319,1,-0.0032,0.0044,0.0011,0.0049,-0.0039,0.0025,0
8228486,1,-0.0032,0.0044,0.0011,-0.0037,-0.0108,0.0142,0
8228653,1,-0.0032,0.0044,0.0011,-0.0066,-0.0067,0.0084,0
8228819,1,-0.0032,0.0044,0.0011,-0.0039,-0.0052,-0.0188,0
8228986,1,-0.0032,0.0044,0.0011,-0.0026,0.0034,-0.0008,0
8229153,1,-0.0032,0.0044,0.0011,0.015,-0.0038,0.0201,0
8229319,1,-0.0032,0.0044,0.0011,0.0047,-0.0049,0.018,0
8229486,1,-0.0032,0.0044,0.0011,0.0024,-0.0003,0.0114,0
8229653,1,-0.0032,0.0044,0.0011,-0.0039,-0.0097,-0.0095,0
8229820,1,-0.0032,0.0044,0.0011,0.0034,-0.0081,-0.0055,0
8229986,1,-0.0032,0.0044,0.0011,0.0026,0.0067,0.0002,0
8230153,1,-0.0032,0.0044,0.0011,0.0049,0.0036,0.0062,0
8230320,1,-0.0032,0.0044,0.0011,0.0132,0.0067,-0.0044,0
8230486,1,-0.0032,0.0044,0.0011,0.0104,-0.0046,-0.0056,0
8230653,1,-0.0032,0.0044,0.0011,-0.0099,-0.0084,0.0019,0
8230820,1,-0.0032,0.0044,0.0012,-0.0075,-0.0158,-0.013,0
8230986,1,-0.0032,0.0044,0.0012,-0.0125,-0.0015,-0.0032,0
8231153,1,-0.0032,0.0044,0.0012,-0.0143,-0.0061,0.0142,0
8231320,1,-0.0032,0.0044,0.0012,-0.0016,-0.0063,0.007,0
8231486,1,-0.0032,0.0044,0.0012,0.011,-0.0042,0.0108,0
8231653,1,-0.0032,0.0044,0.0012,0.0112,-0.009,0.0015,0
8231820,1,-0.0032,0.0044,0.0012,-0.0047,-0.0182,0.0127,0
8231986,1,-0.0032,0.0044,0.0012,0.0001,-0.0043,0.0018,0
8232153,1,-0.0032,0.0044,0.0012,-0.0013,-0.0064,0.0059,0
8232320,1,-0.0032,0.0044,0.0012,0.0037,-0.01,0.0022,0
8232486,1,-0.0032,0.0044,0.0012,0.0135,-0.0021,-0.0042,0
8232653,1,-0.0032,0.0044,0.0012,-0.001,0.0029,-0.0052,0
8232820,1,-0.0032,0.0044,0.0012,0.0134,0.0046,0.0143,0
8232986,1,-0.0032,0.0044,0.0012,0.0045,0.0078,0.0235,0
8233153,1,-0.0032,0.0044,0.0012,0.0011,-0.0044,0.0302,0
8233320,1,-0.0032,0.0044,0.0012,-0.0059,-0.0072,-0.03,0
8233486,1,-0.0032,0.0044,0.0012,-0.0004,0.0033,0.0026,0
8233653,1,-0.0032,0.0044,0.0012,0.0082,-0.0046,-0.0038,0
8233820,1,-0.0032,0.0044,0.0012,-0.0011,0.0013,0.0069,0
8233986,1,-0.0032,0.0044,0.0012,-0.003,-0.0005,0.033,0
8234153,1,-0.0032,0.0044,0.0012,-0.0091,0.0042,-0.0041,0
8234320,1,-0.0032,0.0044,0.0012,-0.0114,0.0056,-0.0116,0
8234486,1,-0.0032,0.0044,0.0012,0.0029,-0.0092,-0.0013,0
8234653,1,-0.0032,0.0044,0.0012,0.0008,-0.0044,0.0043,0
8234820,1,-0.0032,0.0044,0.0012,0.0025,-0.0001,0.0253,0
8234986,1,-0.0032,0.0044,0.0012,0.0162,0.0005,0.0015,0
8235153,1,-0.0032,0.0044,0.0012,0.0209,0.0024,0.0122,0
8235320,1,-0.0033,0.0044,0.0012,0.0019,-0.0108,0.0042,0
8235486,1,-0.0033,0.0044,0.0012,-0.0092,0.0053,0.0064,0
8235653,1,-0.0033,0.0044,0.0012,-0.0084,-0.0129,0.003,0
8235820,1,-0.0032,0.0044,0.0012,0.0123,-0.0147,0.014,0
8235986,1,-0.0032,0.0043,0.0012,0.0034,0.0082,0.0021,0
8236153,1,-0.0032,0.0043,0.0012,-0.0072,0.0041,-0.0016,0
8236320,1,-0.0032,0.0043,0.0012,0.007,0.0028,0.0012,0
8236486,1,-0.0032,0.0043,0.0012,-0.0014,-0.0157,0.0025,0
8236653,1,-0.0032,0.0043,0.0012,-0.0131,-0.0098,-0.0091,0
8236820,1,-0.0032,0.0043,0.0012,-0.0003,-0.0099,0.0386,0
8236986,1,-0.0032,0.0043,0.0012,-0.0068,-0.0116,-0.0091,0
8237153,1,-0.0033,0.0043,0.0012,0.0028,0.0018,0.0019,0
8237320,1,-0.0033,0.0043,0.0012,-0.0085,0.0065,-0.0163,0
8237486,1,-0.0033,0.0043,0.0012,0.0047,0.0053,0.0253,0
8237653,1,-0.0033,0.0043,0.0012,-0.0023,0.0034,0.0006,0
8237820,1,-0.0033,0.0043,0.0012,-0.0099,-0.0023,0.014,0
8237986,1,-0.0033,0.0043,0.0012,-0.0161,-0.0025,0.009,0
8238153,1,-0.0033,0.0043,0.0012,-0.01,-0.0084,0.0102,0
8238320,1,-0.0033,0.0043,0.0012,0.0106,0.0022,0.0261,0
8238486,1,-0.0033,0.0043,0.0012,-0.0042,-0.0033,0.0191,0
8238653,1,-0.0033,0.0043,0.0012,0.002,-0.0007,0.0244,0
8238820,1,-0.0033,0.0043,0.0012,0.0036,0.0035,0.0059,0
8238986,1,-0.0032,0.0043,0.0012,0.0032,-0.0068,0.0124,0
8239153,1,-0.0033,0.0043,0.0012,0.0071,-0.0021,0.0076,0
8239320,1,-0.0032,0.0043,0.0012,0.0048,-0.0022,0.0009,0
8239486,1,-0.0032,0.0043,0.0012,-0.0067,0.0091,0.0017,0
8239653,1,-0.0032,0.0043,0.0012,0.0102,-0.0022,0.0046,0
8239820,1,-0.0032,0.0043,0.0012,0.0004,-0.012,0.0187,0
8239986,1,-0.0032,0.0043,0.0012,0.0062,0.0086,0.0017,0
8240153,1,-0.0032,0.0043,0.0012,0.0067,0,0.0154,0
8240320,1,-0.0032,0.0043,0.0012,-0.0034,-0.0035,0.0011,0
8240486,1,-0.0032,0.0043,0.0012,-0.0012,-0.0087,0.0038,0
8240653,1,-0.0032,0.0043,0.0012,0.012,-0.0056,-0.0077,0
8240820,1,-0.0032,0.0043,0.0012,0.019,0.0024,0.004,0
8240986,1,-0.0032,0.0043,0.0012,0.0061,-0.012,0.0063,0
8241153,1,-0.0032,0.0043,0.0012,-0.0011,-0.0078,-0.0149,0
8241320,1,-0.0032,0.0043,0.0012,-0.012,0,0.0001,0
8241486,1,-0.0032,0.0043,0.0012,0.0102,0.0015,-0.0095,0
8241653,1,-0.0033,0.0043,0.0012,-0.0049,-0.0007,0.0043,0
8241820,1,-0.0033,0.0043,0.0012,-0.005,-0.0073,-0.0168,0
8241986,1,-0.0032,0.0043,0.0012,0.005,0.0031,0.0188,0
8242153,1,-0.0032,0.0043,0.0012,0.0118,-0.0035,0.0163,0
8242320,1,-0.0032,0.0043,0.0012,-0.0055,-0.0028,-0.008,0
8242486,1,-0.0032,0.0043,0.0012,-0.0174,-0.009,-0.0123,0
8242653,1,-0.0032,0.0043,0.0012,-0.0073,-0.0084,-0.0113,0
8242820,1,-0.0032,0.0043,0.0012,0.0104,0.0102,-0.0083,0
8242986,1,-0.0032,0.0043,0.0012,-0.001,-0.0064,0.0245,0
8243153,1,-0.0032,0.0043,0.0012,-0.0157,-0.0057,0.0045,0
8243320,1,-0.0032,0.0043,0.0012,0.0068,-0.0127,-0.0103,0
8243486,1,-0.0032,0.0043,0.0012,-0.0027,-0.0065,0.0022,0
8243653,1,-0.0032,0.0043,0.0012,-0.0027,-0.0186,0.0014,0
8243820,1,-0.0032,0.0043,0.0012,-0.0011,-0.0045,0.0145,0
8243986,1,-0.0032,0.0043,0.0012,-0.0102,-0.0064,0.0195,0
8244153,1,-0.0032,0.0043,0.0012,-0.014,-0.0083,0.0167,0
8244320,1,-0.0032,0.0043,0.0012,-0.0079,-0.0001,-0.0025,0
8244486,1,-0.0032,0.0043,0.0012,-0.017,-0.0228,0.0028,0
8244653,1,-0.0032,0.0043,0.0012,-0.005,0.0108,0.0265,0
8244820,1,-0.0032,0.0043,0.0012,-0.007,-0.0005,0.0095,0
8244986,1,-0.0032,0.0043,0.0012,-0.0021,0.0044,0.0066,0
8245153,1,-0.0032,0.0043,0.0012,0.0008,-0.001,0.0074,0
8245320,1,-0.0032,0.0043,0.0012,0.0016,-0.0113,0.0141,0
8245486,1,-0.0032,0.0043,0.0012,0.0077,0.0007,0.0092,0
8245653,1,-0.0032,0.0043,0.0012,-0.0135,-0.0043,0.0221,0
8245820,1,-0.0032,0.0043,0.0012,-0.009,-0.0149,0.0033,0
8245986,1,-0.0032,0.0043,0.0012,-0.0014,-0.0147,0.0202,0
8246153,1,-0.0032,0.0043,0.0012,-0.0065,-0.0017,-0.0083,0
8246320,1,-0.0032,0.0043,0.0012,0.0057,0.0055,0.0128,0
8246487,1,-0.0032,0.0043,0.0012,-0.0042,-0.0027,-0.0033,0
8246653,1,-0.0032,0.0043,0.0012,0.0105,-0.0068,0.0345,0
8246820,1,-0.0032,0.0043,0.0012,-0.0075,-0.0111,0.0036,0
8246987,1,-0.0032,0.0043,0.0012,0.0141,-0.0022,-0.0045,0
8247153,1,-0.0032,0.0043,0.0012,-0.0138,-0.0143,0.0071,0
8247320,1,-0.0032,0.0043,0.0012,-0.0071,-0.0092,0.0054,0
8247487,1,-0.0032,0.0043,0.0012,-0.0085,-0.0006,-0.0052,0
8247653,1,-0.0032,0.0043,0.0012,-0.0029,0.0062,0.0097,0
8247820,1,-0.0032,0.0043,0.0012,0.0071,-0.0072,0.0074,0
8247987,1,-0.0032,0.0043,0.0012,0.0082,0.0099,0.0183,0
8248153,1,-0.0032,0.0043,0.0012,-0.0024,0.0062,0.0353,0
8248320,1,-0.0032,0.0043,0.0012,0.0041,-0.0087,-0.02,0
8248487,1,-0.0032,0.0043,0.0012,0.0105,-0.0048,0.022,0
8248653,1,-0.0032,0.0042,0.0012,0.0035,-0.0032,-0.0054,0
8248820,1,-0.0032,0.0042,0.0013,0.0025,-0.01,-0.0222,0
8248987,1,-0.0032,0.0042,0.0013,0.0114,0.0041,0.0031,0
8249153,1,-0.0032,0.0042,0.0012,-0.0004,-0.0033,0.0123,0
8249320,1,-0.0032,0.0042,0.0013,-0.0032,0.0052,0.0076,0
8249487,1,-0.0032,0.0042,0.0013,-0.0044,-0.0096,0.018,0
8249653,1,-0.0032,0.0042,0.0013,0.001,-0.0041,0.004,0
8249820,1,-0.0032,0.0042,0.0013,0.0066,-0.0045,0.0077,0
8249987,1,-0.0032,0.0042,0.0013,-0.0013,-0.0066,0.0173,0
8250153,1,-0.0032,0.0042,0.0013,0.0068,0.0061,0.0061,0
8250320,1,-0.0032,0.0042,0.0013,-0.0107,0.0117,0.0134,0
8250487,1,-0.0032,0.0042,0.0013,-0.0078,-0.0066,-0.0071,0
8250653,1,-0.0032,0.0042,0.0013,-0.02,-0.0125,-0.0017,0
8250820,1,-0.0032,0.0042,0.0013,-0.0087,-0.003,0.0013,0
8250987,1,-0.0032,0.0042,0.0013,-0.002,-0.0051,0.0028,0
8251153,1,-0.0032,0.0042,0.0013,0.0065,-0.0044,0.013,0
8251320,1,-0.0032,0.0042,0.0013,-0.0048,-0.0057,0.0114,0
8251487,1,-0.0033,0.0042,0.0013,-0.0129,0.0166,-0.0066,0
8251653,1,-0.0032,0.0042,0.0013,-0.0052,-0.0071,0.004,0
8251820,1,-0.0032,0.0042,0.0013,-0.0024,0.0041,0.0019,0
8251987,1,-0.0032,0.0042,0.0013,0.0044,0.003,-0.0052,0
8252153,1,-0.0032,0.0042,0.0013,0.0029,0.007,0.0064,0
8252320,1,-0.0033,0.0042,0.0013,-0.0108,-0.0042,-0.012,0
8252487,1,-0.0033,0.0042,0.0013,0.0007,-0.0028,-0.0059,0
8252653,1,-0.0033,0.0042,0.0013,-0.0069,-0.0011,0.005,0
8252820,1,-0.0033,0.0042,0.0013,0.003,-0.0043,-0.0136,0
8252987,1,-0.0033,0.0042,0.0013,-0.0078,0.0036,-0.0014,0
8253153,1,-0.0033,0.0042,0.0013,-0.0123,0.0218,0.0185,0
8253320,1,-0.0033,0.0042,0.0013,0.0094,0.0048,0.0049,0
8253487,1,-0.0033,0.0042,0.0013,-0.0119,-0.0024,-0.0154,0
8253653,1,-0.0033,0.0042,0.0013,-0.0034,-0.0169,-0.0071,0
8253820,1,-0.0033,0.0042,0.0013,-0.0005,-0.0058,0.0128,0
8253987,1,-0.0033,0.0042,0.0013,0.0032,-0.0023,0.0032,0
8254153,1,-0.0033,0.0042,0.0013,0.0008,0.0028,0.0202,0
8254320,1,-0.0033,0.0042,0.0013,-0.0007,-0.0002,-0.0087,0
8254487,1,-0.0033,0.0042,0.0013,-0.002,-0.006,0.0027,0
8254653,1,-0.0033,0.0042,0.0013,0.0036,-0.0042,0.0007,0
8254820,1,-0.0033,0.0042,0.0013,0.006,-0.0193,0.0107,0
8254987,1,-0.0033,0.0042,0.0013,0.0039,0.0023,0.0165,0
8255153,1,-0.0033,0.0042,0.0013,-0.0011,-0.0026,0.0012,0
8255320,1,-0.0033,0.0042,0.0013,0.007,-0.0002,0.0065,0
