SampleTimeFine,Quat_W,Quat_X,Quat_Y,Quat_Z,FreeAcc_X,FreeAcc_Y,FreeAcc_Z,Status
18662076,0.9996,-0.0039,-0.0024,-0.0269,0.0164,0.0006,0.1506,0
18662242,0.9996,-0.0039,-0.0026,-0.0267,0.0347,-0.0046,0.1789,0
18662409,0.9996,-0.0039,-0.003,-0.0269,0.0259,-0.0086,0.1755,0
18662576,0.9996,-0.004,-0.0034,-0.0267,0.0206,-0.0168,0.1643,0
18662742,0.9996,-0.0041,-0.0037,-0.0267,-0.0057,-0.0032,0.1782,0
18662909,0.9996,-0.0041,-0.0038,-0.0266,-0.0104,-0.0023,0.1521,0
18663076,0.9996,-0.0041,-0.0039,-0.0262,-0.018,-0.0117,0.1544,0
18663242,0.9996,-0.0042,-0.0039,-0.0259,-0.0086,-0.0132,0.1435,0
18663409,0.9997,-0.0042,-0.004,-0.0258,-0.0046,-0.011,0.1654,0
18663576,0.9997,-0.0042,-0.004,-0.0254,0.0034,-0.0024,0.1876,0
18663742,0.9997,-0.0042,-0.004,-0.0254,0.0056,0.0063,0.1745,0
18663909,0.9997,-0.0042,-0.0041,-0.0255,-0.0019,-0.0109,0.1764,0
18664076,0.9997,-0.0042,-0.0041,-0.0253,-0.0092,0.0009,0.1537,0
18664242,0.9997,-0.0042,-0.0042,-0.0251,-0.0104,-0.003,0.1611,0
18664409,0.9997,-0.0042,-0.0042,-0.025,0.0025,-0.0007,0.1757,0
18664576,0.9997,-0.0042,-0.0043,-0.0251,0.0091,0.0064,0.1737,0
18664742,0.9997,-0.0042,-0.0043,-0.0251,-0.0013,0.0078,0.1666,0
18664909,0.9997,-0.0042,-0.0043,-0.0251,-0.0129,-0.0014,0.1748,0
18665076,0.9997,-0.0042,-0.0044,-0.0251,-0.0017,-0.0021,0.1643,0
18665242,0.9997,-0.0042,-0.0044,-0.025,-0.0141,-0.0036,0.1481,0
18665409,0.9997,-0.0041,-0.0045,-0.025,-0.0085,-0.0216,0.1658,0
18665576,0.9997,-0.0041,-0.0045,-0.0249,-0.0135,-0.0083,0.1688,0
18665742,0.9997,-0.0041,-0.0046,-0.0249,-0.0041,-0.0163,0.1756,0
18665909,0.9997,-0.0041,-0.0046,-0.0253,-0.0148,-0.0038,0.1704,0
18666076,0.9997,-0.0041,-0.0046,-0.0253,-0.0211,-0.0041,0.1672,0
18666242,0.9997,-0.0041,-0.0047,-0.0253,-0.0255,-0.0122,0.1598,0
18666409,0.9997,-0.0041,-0.0047,-0.0251,-0.0292,-0.0004,0.1621,0
18666576,0.9997,-0.0041,-0.0048,-0.025,-0.0166,-0.0193,0.165,0
18666742,0.9997,-0.0041,-0.0048,-0.025,-0.0094,-0.0097,0.1782,0
18666909,0.9997,-0.004,-0.0048,-0.0249,-0.0053,0.0063,0.1805,0
18667076,0.9997,-0.004,-0.0049,-0.0248,-0.0028,0.0022,0.1799,0
18667242,0.9997,-0.004,-0.0049,-0.0248,-0.0235,0.0132,0.1768,0
18667409,0.9997,-0.004,-0.0049,-0.0247,-0.0078,0.0057,0.1709,0
18667576,0.9997,-0.004,-0.005,-0.0247,-0.0255,-0.0194,0.1619,0
18667742,0.9997,-0.004,-0.005,-0.0246,-0.0259,-0.0096,0.1678,0
18667909,0.9997,-0.004,-0.0051,-0.0245,-0.02,-0.0012,0.1631,0
18668076,0.9997,-0.004,-0.0051,-0.0245,-0.0098,-0.0026,0.1839,0
18668242,0.9997,-0.0039,-0.0051,-0.0244,-0.0087,0.0038,0.1871,0
18668409,0.9997,-0.0039,-0.0052,-0.0244,-0.023,-0.0026,0.1611,0
18668576,0.9997,-0.0039,-0.0052,-0.0243,-0.0453,-0.0118,0.1579,0
18668742,0.9997,-0.0039,-0.0052,-0.0244,-0.0349,-0.0066,0.1627,0
18668909,0.9997,-0.0039,-0.0053,-0.0244,-0.0333,-0.0057,0.1631,0
18669076,0.9997,-0.0039,-0.0053,-0.0244,-0.0167,0.0043,0.1749,0
18669242,0.9997,-0.0039,-0.0054,-0.0243,-0.0115,-0.0125,0.1831,0
18669409,0.9997,-0.0038,-0.0054,-0.0242,-0.0131,-0.0151,0.1738,0
18669576,0.9997,-0.0038,-0.0054,-0.0242,-0.0096,-0.0133,0.1808,0
18669742,0.9997,-0.0038,-0.0055,-0.0242,-0.0375,-0.0148,0.166,0
18669909,0.9997,-0.0038,-0.0055,-0.0242,-0.0277,-0.0149,0.1714,0
18670076,0.9997,-0.0038,-0.0055,-0.0241,-0.0303,-0.004,0.1626,0
18670242,0.9997,-0.0038,-0.0056,-0.0242,-0.0279,0.0011,0.1784,0
18670409,0.9997,-0.0038,-0.0056,-0.0243,-0.0274,0.008,0.1768,0
18670576,0.9997,-0.0038,-0.0056,-0.0244,-0.0155,-0.0197,0.1695,0
18670742,0.9997,-0.0038,-0.0056,-0.0245,-0.0321,-0.0113,0.1847,0
18670909,0.9997,-0.0038,-0.0057,-0.0246,-0.0402,-0.0228,0.1738,0
18671076,0.9997,-0.0038,-0.0057,-0.0246,-0.0446,-0.0192,0.1755,0
18671242,0.9997,-0.0037,-0.0057,-0.0246,-0.0405,-0.0066,0.1589,0
18671409,0.9997,-0.0037,-0.0058,-0.0245,-0.0416,-0.0118,0.1586,0
18671576,0.9997,-0.0037,-0.0058,-0.0246,-0.0227,-0.0269,0.1682,0
18671742,0.9997,-0.0037,-0.0058,-0.0244,-0.0247,-0.0016,0.1598,0
18671909,0.9997,-0.0037,-0.0059,-0.0245,-0.0399,-0.0087,0.1644,0
18672076,0.9997,-0.0037,-0.0059,-0.0245,-0.0479,0.0056,0.1705,0
18672242,0.9997,-0.0037,-0.0059,-0.0246,-0.0369,0.0057,0.1671,0
18672409,0.9997,-0.0037,-0.006,-0.0246,-0.0399,-0.0084,0.1733,0
18672576,0.9997,-0.0037,-0.006,-0.0246,-0.0364,-0.0038,0.1636,0
18672742,0.9997,-0.0037,-0.006,-0.0247,-0.0409,-0.0092,0.1632,0
18672909,0.9997,-0.0037,-0.0061,-0.0247,-0.044,-0.0174,0.1632,0
18673076,0.9997,-0.0036,-0.0061,-0.0247,-0.0332,-0.0215,0.1692,0
18673242,0.9997,-0.0036,-0.0061,-0.0246,-0.0405,-0.0172,0.1853,0
18673409,0.9997,-0.0036,-0.0062,-0.0245,-0.0226,-0.0004,0.1644,0
18673576,0.9997,-0.0036,-0.0062,-0.0245,-0.0387,-0.0265,0.1629,0
18673742,0.9997,-0.0036,-0.0062,-0.0246,-0.0392,-0.0196,0.1685,0
18673909,0.9997,-0.0036,-0.0063,-0.0246,-0.0495,-0.0247,0.1677,0
18674076,0.9997,-0.0036,-0.0063,-0.0247,-0.0538,-0.02,0.1608,0
18674242,0.9997,-0.0036,-0.0063,-0.0247,-0.0457,-0.0235,0.1614,0
18674409,0.9997,-0.0036,-0.0063,-0.0248,-0.0437,-0.0116,0.1708,0
18674576,0.9997,-0.0036,-0.0064,-0.0247,-0.0384,-0.0063,0.1785,0
18674742,0.9997,-0.0036,-0.0064,-0.0246,-0.0371,-0.0195,0.1789,0
18674909,0.9997,-0.0035,-0.0064,-0.0246,-0.0542,-0.0188,0.1515,0
18675076,0.9997,-0.0035,-0.0065,-0.0246,-0.0483,-0.0126,0.1604,0
18675242,0.9997,-0.0035,-0.0065,-0.0246,-0.0606,-0.0212,0.151,0
18675409,0.9997,-0.0035,-0.0065,-0.0246,-0.053,-0.0225,0.1706,0
18675576,0.9997,-0.0035,-0.0065,-0.0247,-0.046,-0.0075,0.1655,0
18675742,0.9997,-0.0035,-0.0066,-0.0248,-0.0424,-0.0018,0.1734,0
18675909,0.9997,-0.0035,-0.0066,-0.0247,-0.044,-0.0158,0.1734,0
18676076,0.9997,-0.0035,-0.0066,-0.0248,-0.0503,-0.0256,0.1586,0
18676242,0.9997,-0.0035,-0.0066,-0.0248,-0.069,-0.0152,0.1758,0
18676409,0.9997,-0.0035,-0.0067,-0.0249,-0.0509,-0.0105,0.1631,0
18676576,0.9997,-0.0035,-0.0067,-0.0249,-0.0619,-0.0131,0.157,0
18676742,0.9997,-0.0035,-0.0067,-0.025,-0.0454,-0.0081,0.1752,0
18676909,0.9997,-0.0034,-0.0068,-0.0251,-0.0448,-0.0134,0.1933,0
18677076,0.9997,-0.0034,-0.0068,-0.0253,-0.0654,-0.0121,0.1633,0
18677242,0.9997,-0.0034,-0.0068,-0.0253,-0.0539,-0.0179,0.1747,0
18677409,0.9997,-0.0034,-0.0068,-0.0253,-0.0582,-0.0128,0.1761,0
18677576,0.9996,-0.0034,-0.0069,-0.0254,-0.0515,-0.0139,0.1635,0
18677743,0.9996,-0.0034,-0.0069,-0.0254,-0.0603,-0.0234,0.167,0
18677909,0.9996,-0.0034,-0.0069,-0.0254,-0.0569,-0.0016,0.1606,0
18678076,0.9996,-0.0034,-0.0069,-0.0255,-0.0471,-0.0156,0.1655,0
18678243,0.9996,-0.0034,-0.007,-0.0254,-0.058,-0.0245,0.1745,0
18678409,0.9996,-0.0034,-0.007,-0.0256,-0.0622,-0.0202,0.1823,0
18678576,0.9996,-0.0034,-0.007,-0.0256,-0.0426,-0.0182,0.1755,0
18678743,0.9996,-0.0034,-0.007,-0.0256,-0.0636,-0.0223,0.177,0
18678909,0.9996,-0.0034,-0.007,-0.0256,-0.0582,-0.0115,0.1739,0
18679076,0.9996,-0.0034,-0.0071,-0.0256,-0.0671,-0.0116,0.1549,0
18679243,0.9996,-0.0034,-0.0071,-0.0255,-0.0524,-0.0223,0.158,0
18679409,0.9996,-0.0034,-0.0071,-0.0255,-0.0558,-0.026,0.1827,0
18679576,0.9996,-0.0034,-0.0071,-0.0256,-0.0626,-0.0113,0.1662,0
18679743,0.9996,-0.0034,-0.0072,-0.0257,-0.0659,-0.0139,0.168,0
18679909,0.9996,-0.0034,-0.0072,-0.0257,-0.0574,-0.0045,0.1684,0
18680076,0.9996,-0.0034,-0.0072,-0.0258,-0.0606,-0.0144,0.1705,0
18680243,0.9996,-0.0034,-0.0072,-0.0257,-0.0655,-0.0077,0.17,0
18680409,0.9996,-0.0034,-0.0072,-0.0258,-0.0594,-0.0151,0.1676,0
18680576,0.9996,-0.0034,-0.0073,-0.0258,-0.0747,-0.0152,0.1589,0
18680743,0.9996,-0.0034,-0.0073,-0.0257,-0.061,-0.0065,0.1629,0
18680909,0.9996,-0.0033,-0.0073,-0.0258,-0.0643,-0.0109,0.1669,0
18681076,0.9996,-0.0033,-0.0073,-0.0258,-0.0586,-0.0232,0.1627,0
18681243,0.9996,-0.0033,-0.0073,-0.0259,-0.0665,-0.022,0.1697,0
18681409,0.9996,-0.0033,-0.0073,-0.0259,-0.0775,-0.0231,0.1657,0
18681576,0.9996,-0.0033,-0.0074,-0.0258,-0.0682,-0.0035,0.1655,0
18681743,0.9996,-0.0033,-0.0074,-0.0257,-0.0748,-0.0161,0.1514,0
18681909,0.9996,-0.0044,-0.0039,-0.0269,-0.0209,0.0032,0.1627,0
18682076,0.9996,-0.0044,-0.0039,-0.027,0.0087,0.0068,0.1595,0
18682243,0.9996,-0.0044,-0.0039,-0.0267,0.0088,0.0196,0.1762,0
18682409,0.9996,-0.0044,-0.0039,-0.0267,0.0052,0.0021,0.1714,0
18682576,0.9996,-0.0044,-0.004,-0.0266,0.0002,0.0039,0.1751,0
18682743,0.9996,-0.0044,-0.004,-0.0266,-0.013,0.0054,0.1586,0
18682909,0.9996,-0.0044,-0.004,-0.0265,-0.0056,0.0104,0.1661,0
18683076,0.9996,-0.0044,-0.004,-0.0265,-0.0111,-0.0008,0.1727,0
18683243,0.9996,-0.0044,-0.004,-0.0265,-0.0046,-0.007,0.1705,0
18683409,0.9996,-0.0044,-0.004,-0.0265,0.0142,0.0079,0.1743,0
18683576,0.9996,-0.0044,-0.0039,-0.0265,-0.0067,0.0073,0.1669,0
18683743,0.9996,-0.0044,-0.0039,-0.0265,-0.005,-0.01,0.1843,0
18683909,0.9996,-0.0044,-0.0039,-0.0265,-0.0089,-0.0131,0.1708,0
18684076,0.9996,-0.0044,-0.0039,-0.0265,-0.0246,-0.0137,0.1702,0
18684243,0.9996,-0.0044,-0.004,-0.0265,-0.013,0.0043,0.1716,0
18684409,0.9996,-0.0044,-0.004,-0.0264,-0.01,0.0054,0.1683,0
18684576,0.9996,-0.0044,-0.004,-0.0264,-0.0024,0.0034,0.1853,0
18684743,0.9996,-0.0044,-0.004,-0.0263,0.0087,0.0114,0.164,0
18684909,0.9996,-0.0044,-0.004,-0.0264,-0.0042,0.0012,0.1754,0
18685076,0.9996,-0.0044,-0.004,-0.0263,0.0078,-0.0084,0.16,0
18685243,0.9996,-0.0044,-0.004,-0.0262,-0.0189,-0.0149,0.1504,0
18685409,0.9996,-0.0044,-0.004,-0.0262,-0.0031,0.0089,0.1596,0
18685576,0.9996,-0.0044,-0.004,-0.0262,-0.0042,0.006,0.1765,0
18685743,0.9996,-0.0044,-0.004,-0.0262,0.0029,0.0004,0.1802,0
18685909,0.9996,-0.0044,-0.004,-0.0262,0.0159,0.003,0.1734,0
18686076,0.9996,-0.0044,-0.004,-0.0262,0.02,0.0194,0.1687,0
18686243,0.9996,-0.0044,-0.004,-0.0262,-0.0038,0.0027,0.1588,0
18686409,0.9996,-0.0044,-0.004,-0.0262,-0.0032,-0.0091,0.1656,0
18686576,0.9996,-0.0044,-0.004,-0.0263,0.0054,-0.0048,0.1609,0
18686743,0.9996,-0.0044,-0.004,-0.0262,-0.0057,-0.0022,0.1725,0
18686909,0.9996,-0.0044,-0.004,-0.0262,0.0042,-0.0028,0.1572,0
18687076,0.9996,-0.0044,-0.004,-0.0262,0.0041,0.0011,0.1689,0
18687243,0.9996,-0.0044,-0.004,-0.0262,-0.0003,0.01,0.1808,0
18687409,0.9996,-0.0044,-0.004,-0.0262,-0.0045,0.0031,0.1699,0
18687576,0.9996,-0.0044,-0.004,-0.0262,-0.0062,-0.0002,0.1699,0
18687743,0.9996,-0.0044,-0.004,-0.0262,-0.0134,-0.0105,0.1613,0
18687909,0.9996,-0.0044,-0.004,-0.0262,-0.0009,-0.007,0.1589,0
18688076,0.9996,-0.0044,-0.004,-0.0262,0.0029,0.0051,0.1707,0
18688243,0.9996,-0.0044,-0.004,-0.0261,0.0084,0.0013,0.1587,0
18688409,0.9996,-0.0044,-0.0039,-0.0261,0.012,0.009,0.1803,0
18688576,0.9996,-0.0044,-0.0039,-0.0261,0.0005,-0.0188,0.1725,0
18688743,0.9996,-0.0044,-0.0039,-0.0261,-0.0101,0.0076,0.1612,0
18688909,0.9996,-0.0044,-0.0039,-0.0261,0.0088,0.0119,0.1654,0
18689076,0.9996,-0.0044,-0.0039,-0.0261,0.0113,0.019,0.1713,0
18689243,0.9996,-0.0044,-0.0039,-0.0261,-0.0038,0.0142,0.1677,0
18689409,0.9996,-0.0044,-0.0039,-0.0261,-0.007,0.0045,0.1726,0
18689576,0.9996,-0.0044,-0.0039,-0.0261,0.0031,0.0032,0.1701,0
18689743,0.9996,-0.0044,-0.0039,-0.0261,-0.0029,-0.0083,0.1643,0
18689909,0.9996,-0.0044,-0.0039,-0.0261,0.0049,0.0022,0.1692,0
18690076,0.9996,-0.0044,-0.004,-0.0261,-0.0093,-0.0064,0.1618,0
18690243,0.9996,-0.0044,-0.0039,-0.0261,0.0082,-0.0038,0.1861,0
18690409,0.9996,-0.0044,-0.0039,-0.0261,0.0035,0.0053,0.1675,0
18690576,0.9996,-0.0044,-0.0039,-0.0261,-0.0038,-0.0107,0.1675,0
18690743,0.9996,-0.0044,-0.0039,-0.0261,-0.0123,0.0015,0.1611,0
18690909,0.9996,-0.0044,-0.004,-0.0261,0.0049,0.0119,0.1613,0
18691076,0.9996,-0.0044,-0.004,-0.0261,-0.0006,-0.0002,0.1794,0
18691243,0.9996,-0.0044,-0.004,-0.0261,0.0112,0.0035,0.1796,0
18691409,0.9996,-0.0044,-0.004,-0.0261,0.0035,0,0.1661,0
18691576,0.9996,-0.0044,-0.004,-0.0261,0.0044,-0.0024,0.1598,0
18691743,0.9996,-0.0044,-0.0039,-0.0261,-0.0056,-0.0017,0.1589,0
18691909,0.9996,-0.0044,-0.0039,-0.026,-0.0042,0.0056,0.1588,0
18692076,0.9996,-0.0044,-0.0039,-0.026,-0.0233,0.0056,0.169,0
18692243,0.9996,-0.0044,-0.0039,-0.026,-0.004,0.0121,0.1795,0
18692409,0.9996,-0.0044,-0.0039,-0.0261,0.0087,0.0073,0.1778,0
18692576,0.9996,-0.0044,-0.0039,-0.026,0.0022,0.0118,0.1837,0
18692743,0.9996,-0.0044,-0.0039,-0.0261,0.0112,0.0133,0.1703,0
18692909,0.9996,-0.0044,-0.0039,-0.026,-0.0047,-0.0059,0.1575,0
18693076,0.9996,-0.0044,-0.0039,-0.0261,-0.008,-0.0201,0.1594,0
18693243,0.9996,-0.0044,-0.0039,-0.0261,-0.0107,-0.0098,0.1588,0
18693409,0.9996,-0.0044,-0.0039,-0.0261,-0.0069,0.0063,0.1727,0
18693576,0.9996,-0.0044,-0.0039,-0.0261,-0.0026,-0.0043,0.1895,0
18693743,0.9996,-0.0044,-0.0039,-0.026,0.0077,0.0023,0.1768,0
18693909,0.9996,-0.0044,-0.0039,-0.0261,0.0024,-0.0064,0.1738,0
18694076,0.9996,-0.0044,-0.0039,-0.0261,-0.0112,0.0006,0.1787,0
18694243,0.9996,-0.0044,-0.0039,-0.0261,0.0189,-0.0069,0.1782,0
18694410,0.9996,-0.0044,-0.0039,-0.026,0.0018,0.0052,0.1669,0
18694576,0.9996,-0.0044,-0.0039,-0.026,-0.0076,0.0038,0.1726,0
18694743,0.9996,-0.0044,-0.0039,-0.026,-0.0024,-0.0004,0.1573,0
18694910,0.9996,-0.0044,-0.0039,-0.026,-0.0058,0.0035,0.1633,0
18695076,0.9996,-0.0044,-0.0039,-0.026,0.0102,-0.0027,0.1685,0
18695243,0.9996,-0.0044,-0.0039,-0.026,0.0052,-0.0042,0.1647,0
18695410,0.9996,-0.0045,-0.0039,-0.026,-0.018,-0.0042,0.1731,0
18695576,0.9996,-0.0045,-0.0039,-0.026,0.0006,-0.0011,0.1673,0
18695743,0.9996,-0.0044,-0.0039,-0.026,0.004,0.0056,0.163,0
18695910,0.9996,-0.0044,-0.0039,-0.026,-0.0184,0.0155,0.1709,0
18696076,0.9996,-0.0044,-0.0039,-0.026,-0.0056,-0.0011,0.1739,0
18696243,0.9996,-0.0044,-0.0039,-0.026,-0.001,0.0045,0.1648,0
18696410,0.9996,-0.0044,-0.004,-0.0259,-0.007,-0.0157,0.1749,0
18696576,0.9996,-0.0044,-0.004,-0.0259,0.0063,0.0029,0.1647,0
18696743,0.9996,-0.0045,-0.004,-0.0259,-0.0004,0.0158,0.1662,0
18696910,0.9996,-0.0045,-0.004,-0.0259,-0.0006,0.0051,0.1659,0
18697076,0.9996,-0.0045,-0.004,-0.0259,-0.0033,-0.004,0.1583,0
18697243,0.9996,-0.0044,-0.0039,-0.026,-0.0146,0.0073,0.1612,0
18697410,0.9996,-0.0044,-0.004,-0.0259,-0.0011,0.0062,0.1526,0
18697576,0.9996,-0.0045,-0.0039,-0.026,-0.0097,-0.0059,0.1664,0
18697743,0.9996,-0.0045,-0.0039,-0.026,0.0055,-0.0007,0.1768,0
18697910,0.9996,-0.0044,-0.0039,-0.0259,0.002,0.0067,0.1734,0
18698076,0.9996,-0.0045,-0.0039,-0.0259,-0.0133,0.0053,0.1684,0
18698243,0.9996,-0.0045,-0.0039,-0.0259,-0.0128,0.0012,0.1701,0
18698410,0.9996,-0.0044,-0.0039,-0.0259,-0.0161,0.0105,0.1738,0
18698576,0.9996,-0.0044,-0.0039,-0.0259,-0.0172,0.0026,0.1706,0
18698743,0.9996,-0.0044,-0.0039,-0.0259,-0.0024,0.0052,0.1796,0
18698910,0.9996,-0.0044,-0.0039,-0.0258,0.0006,0.0015,0.1673,0
18699076,0.9996,-0.0045,-0.004,-0.0258,-0.0075,0.0108,0.1773,0
18699243,0.9996,-0.0045,-0.004,-0.0258,0.0153,-0.0013,0.1765,0
18699410,0.9996,-0.0045,-0.0039,-0.0258,0.007,0.0007,0.1636,0
18699576,0.9996,-0.0045,-0.004,-0.0258,-0.014,-0.0059,0.1822,0
18699743,0.9997,-0.0045,-0.004,-0.0258,-0.0069,-0.0041,0.1812,0
18699910,0.9997,-0.0045,-0.004,-0.0258,-0.0008,0.0073,0.1563,0
18700076,0.9997,-0.0045,-0.004,-0.0258,-0.0115,-0.0003,0.179,0
18700243,0.9997,-0.0045,-0.004,-0.0258,0.0074,-0.0033,0.1676,0
18700410,0.9997,-0.0045,-0.004,-0.0257,0.0005,-0.005,0.1652,0
18700576,0.9997,-0.0045,-0.004,-0.0257,0.0013,0.0018,0.1734,0
18700743,0.9997,-0.0045,-0.004,-0.0257,0.0071,0.0134,0.1593,0
18700910,0.9997,-0.0045,-0.004,-0.0257,-0.0007,-0.0068,0.1589,0
18701076,0.9997,-0.0045,-0.004,-0.0257,-0.0097,0.0116,0.1563,0
18701243,0.9997,-0.0045,-0.004,-0.0257,0.0028,0.0112,0.172,0
18701410,0.9997,-0.0045,-0.004,-0.0257,0.0003,-0.0102,0.1758,0
18701576,0.9997,-0.0045,-0.004,-0.0257,-0.0009,0.003,0.1623,0
18701743,0.9997,-0.0045,-0.004,-0.0257,-0.0093,-0.0098,0.1781,0
18701910,0.9997,-0.0044,-0.004,-0.0256,-0.0073,-0.0071,0.1793,0
18702076,0.9997,-0.0044,-0.0039,-0.0256,-0.002,0.0066,0.1712,0
18702243,0.9997,-0.0044,-0.0039,-0.0256,0.0096,-0.0069,0.1611,0
18702410,0.9997,-0.0044,-0.0039,-0.0256,0.0114,-0.0055,0.1729,0
18702576,0.9997,-0.0044,-0.0039,-0.0256,0.0035,0.0023,0.1784,0
18702743,0.9997,-0.0044,-0.0039,-0.0256,0.0018,-0.0073,0.1639,0
18702910,0.9997,-0.0044,-0.0039,-0.0256,-0.0173,-0.0084,0.1599,0
18703076,0.9997,-0.0044,-0.0039,-0.0256,0.0066,-0.0021,0.1756,0
18703243,0.9997,-0.0044,-0.0039,-0.0256,-0.0105,0.0024,0.1645,0
18703410,0.9997,-0.0044,-0.0039,-0.0255,-0.0025,-0.0024,0.1653,0
18703576,0.9997,-0.0044,-0.0039,-0.0255,-0.0036,-0.0089,0.1709,0
18703743,0.9997,-0.0044,-0.0039,-0.0256,-0.005,-0.0104,0.1673,0
18703910,0.9997,-0.0044,-0.0039,-0.0256,0.0084,0.0001,0.1753,0
18704076,0.9997,-0.0044,-0.0039,-0.0255,-0.0089,-0.0007,0.1631,0
18704243,0.9997,-0.0044,-0.0039,-0.0255,-0.0065,-0.0045,0.1686,0
18704410,0.9997,-0.0044,-0.0039,-0.0255,0.008,0.0072,0.1617,0
18704576,0.9997,-0.0044,-0.0039,-0.0255,0.0021,0.0133,0.1869,0
18704743,0.9997,-0.0044,-0.0039,-0.0255,-0.0044,-0.0087,0.1585,0
18704910,0.9997,-0.0044,-0.0039,-0.0255,0.0063,-0.0039,0.1809,0
18705076,0.9997,-0.0044,-0.0039,-0.0255,0.0153,-0.0068,0.1722,0
18705243,0.9997,-0.0044,-0.0039,-0.0255,0.0186,0.0103,0.1806,0
18705410,0.9997,-0.0044,-0.0039,-0.0255,-0.003,-0.0063,0.1757,0
18705576,0.9997,-0.0044,-0.0039,-0.0255,0.0032,0.0075,0.1781,0
18705743,0.9997,-0.0044,-0.0039,-0.0255,0.0119,0.0074,0.1699,0
18705910,0.9997,-0.0044,-0.0039,-0.0255,0.0051,0.011,0.1616,0
18706076,0.9997,-0.0044,-0.0039,-0.0255,0.0117,0.0043,0.1798,0
18706243,0.9997,-0.0044,-0.0039,-0.0255,0.0032,0.0093,0.1563,0
18706410,0.9997,-0.0044,-0.0039,-0.0255,0.0009,0.0049,0.175,0
18706576,0.9997,-0.0044,-0.0039,-0.0255,0.0011,-0.001,0.152,0
18706743,0.9997,-0.0044,-0.0039,-0.0255,-0.0067,0.0053,0.1602,0
18706910,0.9997,-0.0044,-0.0039,-0.0255,0.003,-0.0058,0.1818,0
18707076,0.9997,-0.0044,-0.004,-0.0255,0.0064,-0.0009,0.1635,0
18707243,0.9997,-0.0044,-0.004,-0.0255,0.0117,-0.016,0.1756,0
18707410,0.9997,-0.0044,-0.004,-0.0255,-0.0018,-0.0002,0.1737,0
18707576,0.9997,-0.0044,-0.004,-0.0255,-0.0028,-0.0024,0.1546,0
18707743,0.9997,-0.0044,-0.004,-0.0255,-0.015,0.004,0.1664,0
18707910,0.9997,-0.0044,-0.004,-0.0255,-0.019,0.0086,0.167,0
18708076,0.9997,-0.0044,-0.004,-0.0255,-0.0174,0.0046,0.1788,0
18708243,0.9997,-0.0044,-0.004,-0.0255,-0.0006,0.0041,0.1735,0
18708410,0.9997,-0.0044,-0.004,-0.0255,0.0108,-0.0057,0.176,0
18708576,0.9997,-0.0044,-0.004,-0.0255,0.0026,-0.0006,0.1724,0
18708743,0.9997,-0.0044,-0.004,-0.0255,0.011,0.0075,0.1687,0
18708910,0.9997,-0.0044,-0.004,-0.0255,0.006,0.0002,0.1803,0
18709076,0.9997,-0.0044,-0.004,-0.0255,0.0057,-0.0109,0.1631,0
18709243,0.9997,-0.0044,-0.004,-0.0255,-0.01,-0.0022,0.174,0
18709410,0.9997,-0.0044,-0.004,-0.0255,-0.0134,-0.0172,0.1689,0
18709576,0.9997,-0.0044,-0.004,-0.0255,-0.0037,-0.0017,0.1597,0
18709743,0.9997,-0.0044,-0.004,-0.0254,-0.0005,-0.0015,0.1598,0
18709910,0.9997,-0.0044,-0.004,-0.0254,-0.0025,0.0034,0.1694,0
18710076,0.9997,-0.0044,-0.004,-0.0254,0.0045,0.0111,0.1585,0
18710243,0.9997,-0.0044,-0.004,-0.0254,0.002,0.0077,0.1652,0
18710410,0.9997,-0.0044,-0.004,-0.0254,-0.0028,-0.0076,0.1677,0
18710576,0.9997,-0.0044,-0.004,-0.0254,0.0085,-0.0068,0.163,0
18710743,0.9997,-0.0044,-0.004,-0.0254,-0.0031,-0.0004,0.1621,0
18710910,0.9997,-0.0044,-0.004,-0.0254,0.0055,-0.0031,0.184,0
18711077,0.9997,-0.0044,-0.004,-0.0254,0.0009,0.0099,0.1754,0
18711243,0.9997,-0.0044,-0.004,-0.0254,0.0109,0.0021,0.167,0
18711410,0.9997,-0.0044,-0.004,-0.0254,0.0128,0.0014,0.1792,0
18711577,0.9997,-0.0044,-0.004,-0.0253,-0.0043,0.0037,0.168,0
18711743,0.9997,-0.0044,-0.004,-0.0254,-0.006,-0.0147,0.1619,0
18711910,0.9997,-0.0044,-0.004,-0.0254,-0.0134,0.004,0.1639,0
18712077,0.9997,-0.0044,-0.004,-0.0254,-0.0007,0.0054,0.1654,0
18712243,0.9997,-0.0044,-0.004,-0.0253,0.0081,-0.0099,0.1554,0
18712410,0.9997,-0.0044,-0.004,-0.0253,-0.0025,-0.004,0.165,0
18712577,0.9997,-0.0044,-0.004,-0.0253,-0.0029,0.0071,0.183,0
18712743,0.9997,-0.0044,-0.004,-0.0253,-0.0157,-0.016,0.149,0
18712910,0.9997,-0.0044,-0.004,-0.0253,-0.0062,0.0093,0.17,0
18713077,0.9997,-0.0044,-0.004,-0.0253,-0.0044,-0.0023,0.1667,0
18713243,0.9997,-0.0044,-0.004,-0.0253,0.0089,0.0018,0.1822,0
18713410,0.9997,-0.0044,-0.004,-0.0253,0.0111,-0.0017,0.1648,0
18713577,0.9997,-0.0044,-0.004,-0.0253,0.0018,0.0021,0.1765,0
18713743,0.9997,-0.0044,-0.004,-0.0253,-0.0048,-0.0031,0.1848,0
18713910,0.9997,-0.0044,-0.004,-0.0253,-0.0013,0.006,0.1711,0
18714077,0.9997,-0.0044,-0.004,-0.0253,-0.0015,-0.0017,0.1725,0
18714243,0.9997,-0.0044,-0.004,-0.0252,-0.0083,-0.0112,0.1611,0
18714410,0.9997,-0.0044,-0.004,-0.0252,-0.0037,-0.0006,0.1815,0
18714577,0.9997,-0.0044,-0.004,-0.0252,0.0019,0.0081,0.168,0
18714743,0.9997,-0.0044,-0.004,-0.0252,0.0046,-0.0147,0.1617,0
18714910,0.9997,-0.0044,-0.004,-0.0252,-0.0124,0.0088,0.1503,0
18715077,0.9997,-0.0044,-0.004,-0.0251,-0.0058,0.0044,0.1642,0
18715243,0.9997,-0.0044,-0.004,-0.0251,-0.0042,0.0072,0.1787,0
18715410,0.9997,-0.0044,-0.004,-0.0251,0.0025,-0.0034,0.169,0
18715577,0.9997,-0.0044,-0.004,-0.0251,0.0079,-0.0002,0.1577,0
18715743,0.9997,-0.0044,-0.004,-0.0251,-0.0078,0,0.1703,0
18715910,0.9997,-0.0044,-0.004,-0.0251,0.0085,0.0004,0.1734,0
18716077,0.9997,-0.0044,-0.004,-0.0251,0.0109,0.012,0.1593,0
18716243,0.9997,-0.0044,-0.004,-0.0251,0,-0.0009,0.1665,0
18716410,0.9997,-0.0044,-0.004,-0.025,0.0005,-0.0051,0.1706,0
18716577,0.9997,-0.0044,-0.004,-0.025,-0.0035,0.0069,0.1726,0
18716743,0.9997,-0.0044,-0.004,-0.025,0.0061,0.0094,0.1668,0
18716910,0.9997,-0.0044,-0.004,-0.025,-0.0068,0.0065,0.1655,0
18717077,0.9997,-0.0044,-0.004,-0.025,0.002,-0.0062,0.1582,0
18717243,0.9997,-0.0044,-0.004,-0.025,-0.0114,-0.0021,0.1664,0
18717410,0.9997,-0.0044,-0.004,-0.0249,-0.0146,0.0096,0.1576,0
18717577,0.9997,-0.0044,-0.004,-0.0249,-0.0046,0.0163,0.1734,0
18717743,0.9997,-0.0044,-0.004,-0.0249,-0.0055,0.0093,0.1672,0
18717910,0.9997,-0.0044,-0.004,-0.0249,0.0026,0.0075,0.166,0
18718077,0.9997,-0.0044,-0.004,-0.0249,0.0027,0.025,0.1809,0
18718243,0.9997,-0.0044,-0.004,-0.0249,0.0114,0.0039,0.1609,0
18718410,0.9997,-0.0044,-0.004,-0.0249,0.0018,-0.0089,0.1765,0
18718577,0.9997,-0.0044,-0.004,-0.0248,0.0108,0.0039,0.1706,0
18718743,0.9997,-0.0045,-0.004,-0.0248,-0.0094,-0.0008,0.1629,0
18718910,0.9997,-0.0044,-0.004,-0.0248,-0.005,-0.005,0.1602,0
18719077,0.9997,-0.0045,-0.004,-0.0248,-0.0088,0.0079,0.1644,0
18719243,0.9997,-0.0044,-0.004,-0.0248,-0.0024,0.0182,0.1692,0
18719410,0.9997,-0.0044,-0.004,-0.0248,0.0146,0.0086,0.1983,0
18719577,0.9997,-0.0044,-0.004,-0.0248,-0.0006,-0.011,0.1825,0
18719743,0.9997,-0.0044,-0.004,-0.0247,-0.011,-0.003,0.1817,0
18719910,0.9997,-0.0044,-0.004,-0.0247,0.0098,-0.0099,0.172,0
18720077,0.9997,-0.0044,-0.004,-0.0247,0.0005,0.0113,0.1709,0
18720243,0.9997,-0.0044,-0.004,-0.0247,0.009,-0.0049,0.1697,0
18720410,0.9997,-0.0045,-0.004,-0.0247,0.0148,0.02,0.1677,0
18720577,0.9997,-0.0045,-0.004,-0.0247,0.012,0.0061,0.1795,0
18720743,0.9997,-0.0045,-0.004,-0.0247,0.0055,-0.0052,0.1713,0
18720910,0.9997,-0.0045,-0.004,-0.0247,-0.0049,-0.004,0.1759,0
18721077,0.9997,-0.0045,-0.004,-0.0246,0.0033,-0.0067,0.1715,0
18721243,0.9997,-0.0045,-0.004,-0.0246,-0.0046,-0.0007,0.1672,0
18721410,0.9997,-0.0045,-0.004,-0.0246,0.0071,0.0207,0.1746,0
18721577,0.9997,-0.0045,-0.004,-0.0246,0.0028,0.0092,0.1776,0
18721743,0.9997,-0.0045,-0.004,-0.0246,-0.0005,0.0136,0.1798,0
18721910,0.9997,-0.0044,-0.004,-0.0245,-0.0103,0.0064,0.178,0
18722077,0.9997,-0.0044,-0.004,-0.0245,-0.0012,-0.0002,0.1673,0
18722243,0.9997,-0.0044,-0.004,-0.0245,-0.0027,0.0034,0.1658,0
18722410,0.9997,-0.0044,-0.004,-0.0245,0.0019,-0.0049,0.1562,0
18722577,0.9997,-0.0044,-0.004,-0.0245,0.0052,-0.0031,0.1595,0
18722743,0.9997,-0.0044,-0.004,-0.0244,0.0114,0.0035,0.1749,0
18722910,0.9997,-0.0044,-0.004,-0.0245,-0.0009,0.0055,0.1427,0
18723077,0.9997,-0.0044,-0.004,-0.0244,-0.0276,-0.0271,0.198,0
18723243,0.9997,-0.0044,-0.004,-0.0244,-0.0009,-0.0022,0.2021,0
18723410,0.9997,-0.0044,-0.004,-0.0244,-0.0005,0.0023,0.1869,0
18723577,0.9997,-0.0044,-0.004,-0.0244,-0.0019,-0.007,0.1688,0
18723743,0.9997,-0.0044,-0.004,-0.0244,0.0064,0.0044,0.1634,0
18723910,0.9997,-0.0044,-0.004,-0.0244,0.0003,0.0063,0.17,0
18724077,0.9997,-0.0044,-0.004,-0.0244,0.0092,-0.009,0.174,0
18724243,0.9997,-0.0044,-0.004,-0.0244,-0.0009,-0.0024,0.1655,0
18724410,0.9997,-0.0044,-0.004,-0.0244,0.0011,0.0026,0.1896,0
18724577,0.9997,-0.0044,-0.004,-0.0243,0.0083,0.0199,0.1754,0
18724743,0.9997,-0.0044,-0.004,-0.0243,0.0166,0.0152,0.1702,0
18724910,0.9997,-0.0044,-0.004,-0.0243,0.0086,-0.005,0.1758,0
18725077,0.9997,-0.0044,-0.004,-0.0243,0.0091,-0.0036,0.1581,0
18725243,0.9997,-0.0044,-0.004,-0.0243,-0.0099,-0.0121,0.1644,0
18725410,0.9997,-0.0044,-0.004,-0.0243,-0.0025,-0.0037,0.1606,0
18725577,0.9997,-0.0044,-0.004,-0.0243,0.0044,-0.008,0.1448,0
18725743,0.9997,-0.0044,-0.004,-0.0243,0.0063,0.0158,0.1797,0
18725910,0.9997,-0.0044,-0.004,-0.0243,0.0063,0.0127,0.178,0
18726077,0.9997,-0.0044,-0.004,-0.0243,0.0175,-0.0022,0.1706,0
18726243,0.9997,-0.0044,-0.004,-0.0243,0.0071,-0.0089,0.2104,0
18726410,0.9997,-0.0044,-0.004,-0.0242,-0.0071,-0.01,0.135,0
18726577,0.9997,-0.0044,-0.004,-0.0242,-0.0152,-0.0016,0.1583,0
18726743,0.9997,-0.0044,-0.004,-0.0242,-0.0084,0.0102,0.1813,0
18726910,0.9997,-0.0044,-0.004,-0.0242,-0.0002,0.0162,0.1561,0
18727077,0.9997,-0.0044,-0.004,-0.0242,0.0221,0.0169,0.1812,0
18727243,0.9997,-0.0044,-0.004,-0.0242,0.0211,-0.0043,0.1873,0
18727410,0.9997,-0.0044,-0.004,-0.0242,-0.008,-0.0012,0.1738,0
18727577,0.9997,-0.0044,-0.004,-0.0242,0.0038,-0.0208,0.1674,0
18727744,0.9997,-0.0044,-0.004,-0.0242,-0.0158,0.0019,0.1528,0
18727910,0.9997,-0.0044,-0.004,-0.0242,-0.0095,0.0132,0.1353,0
18728077,0.9997,-0.0044,-0.004,-0.0242,-0.014,0.0163,0.1765,0
18728244,0.9997,-0.0044,-0.004,-0.0242,0.0124,0.0059,0.1736,0
18728410,0.9997,-0.0044,-0.004,-0.0242,0.0386,0.007,0.1796,0
18728577,0.9997,-0.0044,-0.004,-0.0242,0.0203,-0.0056,0.184,0
18728744,0.9997,-0.0044,-0.004,-0.0242,-0.0039,-0.0068,0.1484,0
18728910,0.9997,-0.0044,-0.004,-0.0241,-0.0139,0.0084,0.1584,0
18729077,0.9997,-0.0044,-0.004,-0.0241,-0.0019,-0.0125,0.1583,0
18729244,0.9997,-0.0044,-0.004,-0.0241,0.0006,-0.0102,0.1742,0
18729410,0.9997,-0.0044,-0.004,-0.0241,0.0056,-0.0027,0.1882,0
18729577,0.9997,-0.0044,-0.004,-0.0241,0.0103,-0.002,0.1769,0
18729744,0.9997,-0.0044,-0.004,-0.0241,0.0075,-0.0002,0.1714,0
18729910,0.9997,-0.0044,-0.004,-0.0241,-0.0115,-0.0066,0.1583,0
18730077,0.9997,-0.0044,-0.004,-0.0241,-0.0063,0.0021,0.1745,0
18730244,0.9997,-0.0044,-0.004,-0.0241,0.0019,-0.0065,0.1646,0
18730410,0.9997,-0.0044,-0.004,-0.0241,-0.0104,-0.0062,0.1761,0
18730577,0.9997,-0.0044,-0.004,-0.0241,0.0241,0.001,0.1759,0
18730744,0.9997,-0.0044,-0.004,-0.0241,0.0128,0.0086,0.1714,0
18730910,0.9997,-0.0044,-0.004,-0.0241,-0.0024,0.0217,0.1645,0
18731077,0.9997,-0.0044,-0.004,-0.0241,-0.0058,-0.008,0.1743,0
18731244,0.9997,-0.0044,-0.004,-0.024,0.0002,-0.005,0.1696,0
18731410,0.9997,-0.0044,-0.004,-0.024,0.0047,-0.0005,0.1579,0
18731577,0.9997,-0.0044,-0.004,-0.024,-0.0021,0.0043,0.1775,0
18731744,0.9997,-0.0044,-0.004,-0.024,0.0071,0.0063,0.1685,0
18731910,0.9997,-0.0044,-0.004,-0.0239,0.0031,0.0114,0.1612,0
18732077,0.9997,-0.0044,-0.004,-0.0239,0.0038,0.0221,0.1654,0
18732244,0.9997,-0.0044,-0.004,-0.024,-0.0002,0.0183,0.1548,0
18732410,0.9997,-0.0044,-0.0039,-0.0239,-0.0088,-0.0226,0.1741,0
18732577,0.9997,-0.0044,-0.0039,-0.0239,-0.0058,-0.0141,0.1828,0
18732744,0.9997,-0.0044,-0.0039,-0.0239,0.0093,-0.0053,0.1549,0
18732910,0.9997,-0.0044,-0.0039,-0.0239,-0.0025,0.004,0.1849,0
18733077,0.9997,-0.0044,-0.0039,-0.0239,-0.0005,0.0139,0.1863,0
18733244,0.9997,-0.0044,-0.004,-0.0239,0.0029,0.0147,0.135,0
18733410,0.9997,-0.0044,-0.004,-0.0239,-0.0139,-0.0005,0.1622,0
18733577,0.9997,-0.0044,-0.004,-0.0239,-0.0031,0.0001,0.1888,0
18733744,0.9997,-0.0044,-0.004,-0.0239,0.007,-0.0239,0.1546,0
18733910,0.9997,-0.0044,-0.004,-0.0239,0.0079,-0.009,0.1807,0
18734077,0.9997,-0.0044,-0.004,-0.0239,0.0114,0.0015,0.1758,0
18734244,0.9997,-0.0044,-0.004,-0.0239,-0.008,-0.0032,0.1484,0
18734410,0.9997,-0.0044,-0.004,-0.0239,-0.0033,0.0187,0.211,0
18734577,0.9997,-0.0044,-0.0039,-0.0239,0.005,0.0161,0.1782,0
18734744,0.9997,-0.0044,-0.0039,-0.0239,0.0234,-0.0053,0.1526,0
18734910,0.9997,-0.0044,-0.0039,-0.0238,0.0112,-0.0039,0.2017,0
18735077,0.9997,-0.0044,-0.0039,-0.0238,-0.01,0.0011,0.1473,0
18735244,0.9997,-0.0044,-0.0039,-0.0238,-0.0056,0.0053,0.15,0
18735410,0.9997,-0.0044,-0.0039,-0.0238,0.0001,0.0179,0.1709,0
18735577,0.9997,-0.0044,-0.0039,-0.0238,-0.0076,0.0248,0.1584,0
18735744,0.9997,-0.0044,-0.0039,-0.0238,0.0237,-0.0067,0.1687,0
18735910,0.9997,-0.0044,-0.0039,-0.0238,0.0188,-0.0311,0.1934,0
18736077,0.9997,-0.0044,-0.0039,-0.0238,0.0005,-0.0204,0.1697,0
18736244,0.9997,-0.0044,-0.0039,-0.0238,-0.0005,-0.0054,0.1661,0
18736410,0.9997,-0.0044,-0.0039,-0.0238,-0.0114,0.0121,0.1648,0
18736577,0.9997,-0.0044,-0.0039,-0.0237,-0.0162,0.0304,0.1421,0
18736744,0.9997,-0.0044,-0.0039,-0.0237,0.0013,0.0023,0.1766,0
18736910,0.9997,-0.0044,-0.0039,-0.0237,0.0127,-0.012,0.1809,0
18737077,0.9997,-0.0044,-0.0039,-0.0237,0.0127,-0.0162,0.1532,0
18737244,0.9997,-0.0044,-0.0039,-0.0237,0.001,-0.0094,0.199,0
18737410,0.9997,-0.0044,-0.0039,-0.0237,-0.003,0.001,0.1774,0
18737577,0.9997,-0.0044,-0.0039,-0.0237,-0.0163,0.0203,0.1294,0
18737744,0.9997,-0.0044,-0.0039,-0.0237,-0.0143,0.0008,0.1768,0
18737910,0.9997,-0.0044,-0.0039,-0.0237,0.0011,-0.0017,0.1779,0
18738077,0.9997,-0.0044,-0.0039,-0.0237,0.0129,-0.0127,0.1579,0
18738244,0.9997,-0.0044,-0.0039,-0.0237,0.0104,-0.0124,0.1992,0
18738410,0.9997,-0.0044,-0.0039,-0.0237,-0.0022,0.0096,0.1573,0
18738577,0.9997,-0.0044,-0.0039,-0.0237,-0.0144,0.0139,0.1507,0
18738744,0.9997,-0.0044,-0.0039,-0.0237,-0.0017,0.0018,0.1761,0
18738910,0.9997,-0.0044,-0.0039,-0.0237,-0.0092,0.0058,0.1483,0
18739077,0.9997,-0.0044,-0.0039,-0.0237,0.01,-0.0035,0.1785,0
18739244,0.9997,-0.0044,-0.0039,-0.0237,0.0074,-0.0117,0.1798,0
18739410,0.9997,-0.0044,-0.0039,-0.0237,0.0026,0.0035,0.1548,0
18739577,0.9997,-0.0044,-0.0039,-0.0237,-0.011,0.0134,0.1624,0
18739744,0.9997,-0.0044,-0.0039,-0.0237,-0.0027,0.0101,0.158,0
18739910,0.9997,-0.0044,-0.0039,-0.0237,0.0144,0.0194,0.1585,0
18740077,0.9997,-0.0044,-0.0039,-0.0236,0.0053,-0.0162,0.1757,0
18740244,0.9997,-0.0044,-0.0039,-0.0236,0.0106,-0.0241,0.179,0
18740410,0.9997,-0.0044,-0.0039,-0.0236,0.0113,0.0043,0.1848,0
18740577,0.9997,-0.0044,-0.0039,-0.0236,-0.0003,0.0136,0.1699,0
18740744,0.9997,-0.0044,-0.0039,-0.0236,-0.0107,0.0248,0.1637,0
18740910,0.9997,-0.0044,-0.0039,-0.0236,-0.0102,-0.0006,0.1692,0
18741077,0.9997,-0.0044,-0.0039,-0.0236,-0.0113,-0.0141,0.1653,0
18741244,0.9997,-0.0044,-0.0039,-0.0236,-0.0028,-0.0182,0.1701,0
18741410,0.9997,-0.0044,-0.0039,-0.0236,0.0091,-0.006,0.1704,0
18741577,0.9997,-0.0044,-0.0039,-0.0236,0.0012,0.0072,0.164,0
18741744,0.9997,-0.0044,-0.0039,-0.0236,0.014,0.0099,0.1592,0
18741910,0.9997,-0.0044,-0.004,-0.0236,-0.0014,0.0078,0.1678,0
18742077,0.9997,-0.0044,-0.0039,-0.0236,-0.0077,0.0038,0.1824,0
18742244,0.9997,-0.0044,-0.004,-0.0236,-0.0019,-0.0365,0.1738,0
18742410,0.9997,-0.0044,-0.0039,-0.0236,0.0019,-0.0062,0.1888,0
18742577,0.9997,-0.0044,-0.0039,-0.0236,0.0057,-0.0034,0.1796,0
18742744,0.9997,-0.0044,-0.004,-0.0236,0.0124,0.0071,0.1825,0
18742910,0.9997,-0.0044,-0.004,-0.0236,0.0154,0.0018,0.166,0
18743077,0.9997,-0.0044,-0.004,-0.0236,0.003,0.007,0.165,0
18743244,0.9997,-0.0044,-0.004,-0.0236,0.0014,0.0037,0.1687,0
18743410,0.9997,-0.0044,-0.0039,-0.0236,-0.0035,0.0014,0.1711,0
18743577,0.9997,-0.0044,-0.004,-0.0236,-0.0052,-0.0053,0.1724,0
18743744,0.9997,-0.0044,-0.004,-0.0236,-0.0054,0.0158,0.164,0
18743910,0.9997,-0.0044,-0.004,-0.0236,-0.0102,-0.0011,0.161,0
18744077,0.9997,-0.0044,-0.004,-0.0236,0.0154,0.0056,0.1768,0
18744244,0.9997,-0.0044,-0.004,-0.0236,-0.0149,-0.0017,0.1714,0
18744411,0.9997,-0.0044,-0.004,-0.0236,-0.0074,-0.0012,0.162,0
18744577,0.9997,-0.0044,-0.004,-0.0236,-0.0236,-0.0029,0.1632,0
18744744,0.9997,-0.0044,-0.004,-0.0236,0,0.0013,0.1693,0
18744911,0.9997,-0.0044,-0.004,-0.0236,0.0044,0.0009,0.169,0
18745077,0.9997,-0.0044,-0.004,-0.0236,0.0185,-0.0002,0.1885,0
18745244,0.9997,-0.0044,-0.004,-0.0236,0.0144,0.0009,0.1789,0
18745411,0.9997,-0.0044,-0.004,-0.0236,0.0073,-0.0036,0.1798,0
18745577,0.9997,-0.0044,-0.004,-0.0236,-0.0022,-0.008,0.1715,0
18745744,0.9997,-0.0044,-0.004,-0.0236,0.0051,0.003,0.1775,0
18745911,0.9997,-0.0044,-0.004,-0.0236,-0.0009,0.0123,0.1677,0
18746077,0.9997,-0.0044,-0.004,-0.0236,0.003,0.0024,0.185,0
18746244,0.9997,-0.0044,-0.004,-0.0236,-0.001,-0.0085,0.1744,0
18746411,0.9997,-0.0044,-0.004,-0.0236,-0.003,-0.0029,0.177,0
18746577,0.9997,-0.0044,-0.004,-0.0236,-0.0013,-0.0058,0.1897,0
18746744,0.9997,-0.0044,-0.004,-0.0236,-0.0078,0.0023,0.1696,0
18746911,0.9997,-0.0044,-0.004,-0.0236,-0.0008,0.0006,0.1623,0
18747077,0.9997,-0.0044,-0.004,-0.0236,-0.0068,0.0124,0.1693,0
18747244,0.9997,-0.0044,-0.004,-0.0236,-0.0076,0.0016,0.1741,0
18747411,0.9997,-0.0044,-0.004,-0.0236,0.0135,0.0052,0.1692,0
18747577,0.9997,-0.0044,-0.004,-0.0236,-0.0021,-0.0005,0.1688,0
18747744,0.9997,-0.0044,-0.004,-0.0236,0.0042,0.0076,0.1609,0
18747911,0.9997,-0.0044,-0.004,-0.0236,-0.0048,0.0062,0.1667,0
18748077,0.9997,-0.0044,-0.004,-0.0236,0.0075,0.0017,0.1645,0
18748244,0.9997,-0.0044,-0.004,-0.0236,0.0165,0.0022,0.1718,0
18748411,0.9997,-0.0044,-0.004,-0.0236,0.0055,0.0071,0.1643,0
18748577,0.9997,-0.0044,-0.004,-0.0236,0.0135,0.0055,0.1775,0
18748744,0.9997,-0.0044,-0.004,-0.0236,-0.0013,-0.0027,0.1661,0
18748911,0.9997,-0.0044,-0.004,-0.0235,-0.008,0.0045,0.1697,0
18749077,0.9997,-0.0044,-0.004,-0.0235,-0.0127,-0.0072,0.1518,0
18749244,0.9997,-0.0044,-0.004,-0.0235,-0.0094,-0.0056,0.1747,0
18749411,0.9997,-0.0043,-0.004,-0.0235,0.0045,0.0077,0.1832,0
18749577,0.9997,-0.0043,-0.0041,-0.0235,0.0115,0.0089,0.1829,0
18749744,0.9997,-0.0043,-0.0041,-0.0235,0.0006,0.0116,0.1727,0
18749911,0.9997,-0.0043,-0.0041,-0.0235,-0.0004,-0.006,0.1622,0
18750077,0.9997,-0.0043,-0.0041,-0.0235,-0.006,0.0079,0.1771,0
18750244,0.9997,-0.0043,-0.0041,-0.0235,-0.0056,0.0017,0.1542,0
18750411,0.9997,-0.0043,-0.0041,-0.0235,-0.0164,0.0062,0.1691,0
18750577,0.9997,-0.0043,-0.0041,-0.0235,0.0123,-0.0142,0.1698,0
18750744,0.9997,-0.0043,-0.0041,-0.0235,0.012,0.0015,0.1842,0
18750911,0.9997,-0.0043,-0.0041,-0.0235,0.0122,0.0046,0.1843,0
18751077,0.9997,-0.0043,-0.0041,-0.0235,0.0042,-0.0071,0.1745,0
18751244,0.9997,-0.0043,-0.0041,-0.0235,-0.023,0.002,0.1762,0
18751411,0.9997,-0.0043,-0.0041,-0.0235,-0.0178,0.0084,0.1723,0
18751577,0.9997,-0.0043,-0.0041,-0.0235,-0.0188,0.0001,0.164,0
18751744,0.9997,-0.0043,-0.0041,-0.0235,-0.0028,-0.0041,0.1763,0
18751911,0.9997,-0.0043,-0.0041,-0.0235,0.0114,-0.0053,0.1699,0
18752077,0.9997,-0.0043,-0.0041,-0.0235,0.0156,-0.0083,0.1817,0
18752244,0.9997,-0.0043,-0.0041,-0.0235,-0.0078,-0.0091,0.1719,0
18752411,0.9997,-0.0043,-0.004,-0.0235,0.0033,0.0022,0.1507,0
18752577,0.9997,-0.0043,-0.0041,-0.0235,-0.0055,-0.0034,0.158,0
18752744,0.9997,-0.0043,-0.0041,-0.0235,-0.0174,-0.005,0.1549,0
18752911,0.9997,-0.0043,-0.0041,-0.0235,0.0048,0.0077,0.1716,0
18753077,0.9997,-0.0043,-0.0041,-0.0234,0.0093,0.0069,0.1857,0
18753244,0.9997,-0.0043,-0.0041,-0.0234,0.0293,0.0068,0.1657,0
18753411,0.9997,-0.0043,-0.004,-0.0234,-0.0055,0.005,0.1618,0
18753577,0.9997,-0.0043,-0.004,-0.0234,-0.015,-0.0033,0.1653,0
18753744,0.9997,-0.0043,-0.004,-0.0234,-0.0094,-0.0082,0.1676,0
18753911,0.9997,-0.0044,-0.004,-0.0234,-0.0094,0.0127,0.1603,0
18754077,0.9997,-0.0043,-0.004,-0.0234,0.0009,0.0079,0.1687,0
18754244,0.9997,-0.0043,-0.004,-0.0234,0.0163,-0.0041,0.1755,0
18754411,0.9997,-0.0043,-0.004,-0.0234,0.005,-0.0093,0.1845,0
18754577,0.9997,-0.0043,-0.004,-0.0234,0.0004,-0.0096,0.1839,0
18754744,0.9997,-0.0043,-0.004,-0.0234,-0.0055,0.002,0.158,0
18754911,0.9997,-0.0044,-0.004,-0.0234,-0.0097,-0.0071,0.1806,0
18755077,0.9997,-0.0043,-0.004,-0.0234,-0.0067,-0.016,0.1632,0
18755244,0.9997,-0.0043,-0.004,-0.0234,-0.0011,0.0065,0.1627,0
18755411,0.9997,-0.0043,-0.004,-0.0234,-0.0033,0.006,0.1858,0
18755577,0.9997,-0.0043,-0.0041,-0.0234,0.0092,0.0008,0.1733,0
18755744,0.9997,-0.0043,-0.004,-0.0234,0.0083,0.0129,0.1598,0
18755911,0.9997,-0.0043,-0.004,-0.0234,0.0026,-0.0174,0.1557,0
18756077,0.9997,-0.0043,-0.004,-0.0234,0.0112,-0.0076,0.1618,0
18756244,0.9997,-0.0043,-0.0041,-0.0234,-0.0092,-0.0068,0.1649,0
18756411,0.9997,-0.0043,-0.0041,-0.0234,-0.0015,0.0071,0.171,0
18756577,0.9997,-0.0043,-0.0041,-0.0234,0.007,0.0024,0.1747,0
18756744,0.9997,-0.0043,-0.0041,-0.0234,0.0126,-0.001,0.1731,0
18756911,0.9997,-0.0043,-0.0041,-0.0234,0.0065,0.0082,0.1691,0
18757077,0.9997,-0.0043,-0.0041,-0.0234,-0.0118,-0.0003,0.1622,0
18757244,0.9997,-0.0043,-0.0041,-0.0234,-0.0088,-0.0215,0.1721,0
18757411,0.9997,-0.0043,-0.004,-0.0233,0.0017,-0.0028,0.1637,0
18757577,0.9997,-0.0043,-0.004,-0.0233,0.0089,-0.0025,0.1598,0
18757744,0.9997,-0.0043,-0.0041,-0.0233,0.0065,0.0073,0.1564,0
18757911,0.9997,-0.0043,-0.0041,-0.0233,0.0031,0.0081,0.1726,0
18758077,0.9997,-0.0043,-0.004,-0.0233,-0.0014,-0.0042,0.1662,0
18758244,0.9997,-0.0043,-0.0041,-0.0233,-0.0018,-0.0026,0.1642,0
18758411,0.9997,-0.0043,-0.004,-0.0233,-0.0006,-0.0219,0.1626,0
18758577,0.9997,-0.0043,-0.0041,-0.0233,-0.0171,0.003,0.167,0
18758744,0.9997,-0.0043,-0.0041,-0.0233,0.0006,0.022,0.17,0
18758911,0.9997,-0.0043,-0.0041,-0.0233,0.003,0.0109,0.1718,0
18759077,0.9997,-0.0043,-0.0041,-0.0233,-0.0001,0.0132,0.1559,0
18759244,0.9997,-0.0043,-0.0041,-0.0233,0.0038,0.0078,0.1572,0
18759411,0.9997,-0.0043,-0.0041,-0.0233,0.0083,-0.013,0.1718,0
18759577,0.9997,-0.0043,-0.0041,-0.0233,0.0052,-0.0085,0.1655,0
18759744,0.9997,-0.0043,-0.0041,-0.0233,-0.0122,0.0084,0.1813,0
18759911,0.9997,-0.0043,-0.0041,-0.0233,-0.0045,0.0069,0.1587,0
18760077,0.9997,-0.0043,-0.0041,-0.0233,0.0066,0.0077,0.1719,0
18760244,0.9997,-0.0043,-0.0041,-0.0233,-0.0039,0.0023,0.1678,0
18760411,0.9997,-0.0043,-0.0041,-0.0233,0.0008,-0.0058,0.1761,0
18760577,0.9997,-0.0043,-0.0041,-0.0233,-0.0119,0.0055,0.1711,0
18760744,0.9997,-0.0043,-0.0041,-0.0233,0.0003,0.0119,0.1636,0
18760911,0.9997,-0.0043,-0.0041,-0.0233,0.0005,0.0024,0.1774,0
18761078,0.9997,-0.0043,-0.0041,-0.0233,0.0043,0.0053,0.1726,0
18761244,0.9997,-0.0044,-0.0041,-0.0233,-0.006,0.0233,0.1649,0
18761411,0.9997,-0.0044,-0.0041,-0.0233,-0.0169,0.0106,0.1893,0
18761578,0.9997,-0.0044,-0.0041,-0.0233,-0.0119,-0.0022,0.169,0
18761744,0.9997,-0.0044,-0.0041,-0.0233,-0.001,-0.0031,0.1665,0
18761911,0.9997,-0.0044,-0.004,-0.0233,-0.0175,-0.0056,0.1697,0
18762078,0.9997,-0.0044,-0.004,-0.0233,0.0051,0.0045,0.1518,0
18762244,0.9997,-0.0044,-0.004,-0.0233,0.0042,0.0029,0.1681,0
18762411,0.9997,-0.0044,-0.004,-0.0233,0.0108,-0.0003,0.1604,0
18762578,0.9997,-0.0044,-0.004,-0.0233,-0.0008,-0.0037,0.1783,0
18762744,0.9997,-0.0044,-0.004,-0.0233,-0.0017,-0.0028,0.1746,0
18762911,0.9997,-0.0044,-0.0039,-0.0233,0.0056,0.0136,0.1636,0
18763078,0.9997,-0.0044,-0.0039,-0.0233,-0.0019,0.0014,0.1831,0
18763244,0.9997,-0.0044,-0.004,-0.0233,0.0068,0.011,0.1679,0
18763411,0.9997,-0.0044,-0.004,-0.0233,-0.0069,-0.006,0.1625,0
18763578,0.9997,-0.0044,-0.004,-0.0233,0.0018,-0.0116,0.1652,0
18763744,0.9997,-0.0044,-0.0039,-0.0233,-0.0154,-0.0095,0.1582,0
18763911,0.9997,-0.0044,-0.0039,-0.0233,-0.0008,0.0015,0.1592,0
18764078,0.9997,-0.0044,-0.0039,-0.0233,-0.0013,-0.0075,0.164,0
18764244,0.9997,-0.0044,-0.0039,-0.0233,-0.002,-0.0017,0.1621,0
18764411,0.9997,-0.0044,-0.0039,-0.0232,-0.0081,0.0067,0.1731,0
18764578,0.9997,-0.0044,-0.0039,-0.0232,0.0057,-0.0007,0.1579,0
18764744,0.9997,-0.0044,-0.0039,-0.0232,0.011,-0.0014,0.1768,0
18764911,0.9997,-0.0044,-0.0039,-0.0232,0.0045,-0.0123,0.1551,0
18765078,0.9997,-0.0044,-0.0039,-0.0232,0.01,-0.0186,0.1748,0
18765244,0.9997,-0.0044,-0.0039,-0.0232,-0.0032,0.0137,0.178,0
18765411,0.9997,-0.0044,-0.0039,-0.0232,0.0075,0.0149,0.1778,0
18765578,0.9997,-0.0044,-0.0039,-0.0232,0.0157,0.0007,0.1669,0
18765744,0.9997,-0.0044,-0.0039,-0.0232,-0.0006,-0.0088,0.1745,0
18765911,0.9997,-0.0044,-0.0039,-0.0232,0.0019,-0.0156,0.1727,0
18766078,0.9997,-0.0044,-0.0039,-0.0232,-0.0025,-0.0078,0.1596,0
18766244,0.9997,-0.0044,-0.0039,-0.0231,0.0026,-0.0074,0.1748,0
18766411,0.9997,-0.0044,-0.0039,-0.0232,0.0042,0.0095,0.1716,0
18766578,0.9997,-0.0044,-0.0039,-0.0231,0.0077,0.0053,0.1737,0
18766744,0.9997,-0.0044,-0.0039,-0.0231,-0.0073,0.0079,0.1721,0
18766911,0.9997,-0.0044,-0.0039,-0.0231,0.0008,-0.0012,0.1675,0
18767078,0.9997,-0.0044,-0.0039,-0.0231,0.0116,-0.0202,0.1668,0
18767244,0.9997,-0.0044,-0.0039,-0.0231,0.0029,-0.0027,0.1714,0
18767411,0.9997,-0.0044,-0.0039,-0.0231,-0.0013,0.0077,0.1724,0
18767578,0.9997,-0.0044,-0.0039,-0.0231,-0.0048,0.0097,0.175,0
18767744,0.9997,-0.0044,-0.0039,-0.0231,0.0094,0.0022,0.1753,0
18767911,0.9997,-0.0044,-0.0039,-0.0231,0.0179,-0.001,0.1745,0
18768078,0.9997,-0.0044,-0.0039,-0.0231,-0.0008,-0.0127,0.1716,0
18768244,0.9997,-0.0044,-0.0039,-0.0231,0.0006,-0.0107,0.1783,0
18768411,0.9997,-0.0044,-0.0039,-0.0231,-0.0068,0.0119,0.1851,0
18768578,0.9997,-0.0044,-0.0039,-0.0231,0.0065,-0.0015,0.1609,0
18768744,0.9997,-0.0044,-0.0039,-0.0231,-0.0034,-0.0027,0.1586,0
18768911,0.9997,-0.0044,-0.004,-0.0231,-0.0047,-0.0071,0.1755,0
18769078,0.9997,-0.0044,-0.004,-0.0231,-0.0095,0.0078,0.1614,0
18769244,0.9997,-0.0044,-0.004,-0.0231,0.0079,0.0022,0.1772,0
18769411,0.9997,-0.0044,-0.004,-0.0231,0,-0.0086,0.1614,0
18769578,0.9997,-0.0044,-0.004,-0.0231,-0.0079,0.0055,0.1864,0
18769744,0.9997,-0.0044,-0.004,-0.0231,-0.0033,0.0027,0.1877,0
18769911,0.9997,-0.0044,-0.004,-0.0231,0.0053,0.0028,0.1843,0
18770078,0.9997,-0.0044,-0.004,-0.0231,0.0115,-0.0028,0.1769,0
18770244,0.9997,-0.0044,-0.004,-0.0231,0.0087,0.0012,0.1706,0
18770411,0.9997,-0.0044,-0.004,-0.0231,0.0042,-0.0065,0.1727,0
18770578,0.9997,-0.0044,-0.004,-0.0231,-0.0028,-0.0118,0.1646,0
18770744,0.9997,-0.0044,-0.004,-0.0231,-0.0068,0.0189,0.1768,0
18770911,0.9997,-0.0044,-0.004,-0.0231,-0.003,0.013,0.1528,0
18771078,0.9997,-0.0044,-0.004,-0.0231,-0.0102,-0.002,0.1807,0
18771244,0.9997,-0.0044,-0.004,-0.0231,0.0087,0.0015,0.1672,0
18771411,0.9997,-0.0044,-0.004,-0.023,-0.002,0,0.1605,0
18771578,0.9997,-0.0044,-0.004,-0.023,-0.0024,0.0047,0.1732,0
18771744,0.9997,-0.0044,-0.004,-0.023,-0.0046,0.0104,0.1662,0
18771911,0.9997,-0.0044,-0.004,-0.023,-0.0045,0.0118,0.1684,0
18772078,0.9997,-0.0044,-0.004,-0.023,0.0146,0.0033,0.1813,0
18772244,0.9997,-0.0044,-0.004,-0.023,0.0123,0.0098,0.1741,0
18772411,0.9997,-0.0044,-0.004,-0.023,0.0032,0.0042,0.1816,0
18772578,0.9997,-0.0044,-0.004,-0.023,-0.0117,0.012,0.1635,0
18772744,0.9997,-0.0044,-0.004,-0.023,-0.0038,-0.0146,0.1648,0
18772911,0.9997,-0.0044,-0.004,-0.023,-0.0089,0.0026,0.1789,0
18773078,0.9997,-0.0043,-0.004,-0.023,0.0056,0.006,0.1795,0
18773244,0.9997,-0.0044,-0.004,-0.023,-0.0082,0.0138,0.1617,0
18773411,0.9997,-0.0044,-0.004,-0.023,0.0005,0.0049,0.1568,0
18773578,0.9997,-0.0044,-0.004,-0.023,-0.0129,-0.0046,0.1629,0
18773744,0.9997,-0.0044,-0.004,-0.023,-0.0055,-0.0093,0.1532,0
18773911,0.9997,-0.0044,-0.004,-0.023,0.0008,0.0087,0.1696,0
18774078,0.9997,-0.0044,-0.004,-0.023,-0.0106,-0.0027,0.171,0
18774244,0.9997,-0.0044,-0.004,-0.023,0.0003,0.0068,0.1665,0
18774411,0.9997,-0.0044,-0.004,-0.023,0.0037,0.0138,0.1688,0
18774578,0.9997,-0.0044,-0.004,-0.023,0.0048,0.0078,0.1738,0
18774744,0.9997,-0.0044,-0.004,-0.023,0.0062,-0.005,0.1695,0
18774911,0.9997,-0.0044,-0.004,-0.023,-0.0059,-0.0063,0.155,0
18775078,0.9997,-0.0044,-0.004,-0.023,-0.0172,0.0063,0.1687,0
18775244,0.9997,-0.0044,-0.004,-0.023,-0.0112,0.0021,0.1677,0
18775411,0.9997,-0.0044,-0.004,-0.023,0.0065,0.0124,0.1791,0
18775578,0.9997,-0.0044,-0.004,-0.023,0.009,0.0052,0.1796,0
18775744,0.9997,-0.0044,-0.004,-0.023,-0.002,-0.0069,0.1706,0
18775911,0.9997,-0.0044,-0.004,-0.023,-0.0049,-0.0033,0.1683,0
18776078,0.9997,-0.0044,-0.004,-0.023,-0.0147,-0.0154,0.1571,0
18776244,0.9997,-0.0044,-0.004,-0.023,-0.0109,0.0038,0.1943,0
18776411,0.9997,-0.0044,-0.004,-0.023,0.0084,0.0064,0.1373,0
18776578,0.9997,-0.0044,-0.004,-0.023,-0.0027,0.0015,0.1754,0
18776744,0.9997,-0.0044,-0.004,-0.023,0.0051,-0.0044,0.1985,0
18776911,0.9997,-0.0044,-0.004,-0.023,0.0231,0.0003,0.1614,0
18777078,0.9997,-0.0044,-0.004,-0.023,-0.0023,0.0091,0.2041,0
18777244,0.9997,-0.0044,-0.004,-0.023,-0.0015,-0.0012,0.1458,0
18777411,0.9997,-0.0044,-0.004,-0.023,-0.013,-0.0045,0.1407,0
18777578,0.9997,-0.0044,-0.004,-0.023,0.0033,0.0039,0.1636,0
18777745,0.9997,-0.0044,-0.004,-0.023,0.0086,0.0066,0.1651,0
18777911,0.9997,-0.0044,-0.004,-0.023,0.0121,0.0141,0.1932,0
18778078,0.9997,-0.0044,-0.004,-0.023,0.0076,0.0011,0.144,0
18778245,0.9997,-0.0044,-0.004,-0.023,-0.0017,-0.0013,0.2007,0
18778411,0.9997,-0.0044,-0.004,-0.023,0.0027,-0.0008,0.1375,0
18778578,0.9997,-0.0044,-0.004,-0.023,-0.0053,-0.0086,0.135,0
18778745,0.9997,-0.0044,-0.0041,-0.023,-0.0093,-0.0083,0.1852,0
18778911,0.9997,-0.0044,-0.004,-0.023,0.0023,-0.0004,0.167,0
18779078,0.9997,-0.0044,-0.004,-0.023,0.005,-0.0037,0.1693,0
18779245,0.9997,-0.0044,-0.004,-0.023,0.0115,0.0186,0.1918,0
18779411,0.9997,-0.0044,-0.004,-0.023,-0.0031,0.0291,0.1621,0
18779578,0.9997,-0.0044,-0.004,-0.0229,-0.014,0.0044,0.1579,0
18779745,0.9997,-0.0044,-0.004,-0.0229,-0.0189,-0.0003,0.1714,0
18779911,0.9997,-0.0044,-0.0041,-0.0229,0.0034,-0.015,0.1548,0
18780078,0.9997,-0.0044,-0.004,-0.0229,0.0061,-0.0048,0.1888,0
18780245,0.9997,-0.0044,-0.0041,-0.0229,0.0006,0.0031,0.1801,0
18780411,0.9997,-0.0044,-0.004,-0.0229,0.0015,0.0187,0.156,0
18780578,0.9997,-0.0044,-0.004,-0.0229,-0.0062,0.0226,0.1663,0
18780745,0.9997,-0.0044,-0.0041,-0.0229,-0.0144,-0.008,0.1532,0
18780911,0.9997,-0.0044,-0.0041,-0.0229,-0.0111,-0.0155,0.1576,0
18781078,0.9997,-0.0044,-0.0041,-0.0229,-0.0047,-0.0216,0.1859,0
18781245,0.9997,-0.0044,-0.0041,-0.0229,0.0125,-0.0015,0.1866,0
18781411,0.9997,-0.0044,-0.004,-0.0229,0.0105,0.0199,0.1724,0
18781578,0.9997,-0.0044,-0.004,-0.023,0.007,0.0098,0.1761,0
18781745,0.9997,-0.0044,-0.004,-0.0229,-0.0063,-0.003,0.1699,0
18781911,0.9997,-0.0044,-0.004,-0.023,-0.0089,0.0048,0.159,0
18782078,0.9997,-0.0044,-0.004,-0.023,-0.0044,-0.0086,0.1684,0
18782245,0.9997,-0.0044,-0.004,-0.023,-0.005,-0.0089,0.1701,0
18782411,0.9997,-0.0044,-0.004,-0.023,0.0012,0,0.1806,0
18782578,0.9997,-0.0043,-0.004,-0.023,-0.0068,0.0098,0.1666,0
18782745,0.9997,-0.0044,-0.004,-0.023,-0.004,-0.0001,0.1812,0
18782911,0.9997,-0.0043,-0.004,-0.023,-0.0094,0,0.1543,0
18783078,0.9997,-0.0044,-0.004,-0.023,-0.0309,-0.01,0.1709,0
18783245,0.9997,-0.0044,-0.004,-0.023,0.0026,-0.0085,0.1538,0
18783411,0.9997,-0.0044,-0.004,-0.023,0.0033,-0.0083,0.1872,0
18783578,0.9997,-0.0044,-0.004,-0.023,0.0087,0.013,0.1774,0
18783745,0.9997,-0.0044,-0.004,-0.023,0.0222,0.0107,0.1805,0
18783911,0.9997,-0.0044,-0.004,-0.023,0.0028,0.0116,0.169,0
18784078,0.9997,-0.0044,-0.004,-0.023,-0.0222,-0.0023,0.1781,0
18784245,0.9997,-0.0044,-0.004,-0.023,-0.0092,-0.0204,0.1587,0
18784411,0.9997,-0.0044,-0.004,-0.023,-0.0087,-0.0089,0.1585,0
18784578,0.9997,-0.0044,-0.004,-0.023,0.002,-0.0053,0.1848,0
18784745,0.9997,-0.0044,-0.004,-0.023,0.0165,0.0018,0.1714,0
18784911,0.9997,-0.0044,-0.004,-0.023,0.0028,0.0063,0.1752,0
18785078,0.9997,-0.0044,-0.004,-0.023,0.0155,-0.0068,0.1739,0
18785245,0.9997,-0.0044,-0.004,-0.023,-0.0194,0,0.1583,0
18785411,0.9997,-0.0043,-0.004,-0.023,-0.0197,-0.0095,0.1502,0
18785578,0.9997,-0.0043,-0.004,-0.023,-0.015,-0.0078,0.1708,0
18785745,0.9997,-0.0043,-0.004,-0.023,0.0012,0.0093,0.1755,0
18785911,0.9997,-0.0043,-0.004,-0.023,0.0142,-0.0004,0.1791,0
18786078,0.9997,-0.0044,-0.004,-0.023,0.019,0.0082,0.19,0
18786245,0.9997,-0.0043,-0.004,-0.023,-0.0092,0.0023,0.1617,0
18786411,0.9997,-0.0043,-0.004,-0.023,0.0001,-0.0003,0.1622,0
18786578,0.9997,-0.0043,-0.004,-0.023,0.0018,-0.0251,0.1646,0
18786745,0.9997,-0.0043,-0.004,-0.023,-0.0026,-0.0041,0.1722,0
18786911,0.9997,-0.0043,-0.004,-0.023,0.0012,0.0031,0.1704,0
18787078,0.9997,-0.0043,-0.004,-0.023,0.012,0.0004,0.191,0
18787245,0.9997,-0.0043,-0.004,-0.023,0.011,0.0129,0.187,0
18787411,0.9997,-0.0043,-0.004,-0.023,0.0008,-0.0178,0.1788,0
18787578,0.9997,-0.0043,-0.004,-0.023,-0.0127,-0.0131,0.1623,0
18787745,0.9997,-0.0043,-0.004,-0.023,-0.0223,-0.0084,0.1521,0
18787911,0.9997,-0.0043,-0.004,-0.023,-0.0185,-0.0037,0.1557,0
18788078,0.9997,-0.0043,-0.0041,-0.023,-0.014,-0.0042,0.1665,0
18788245,0.9997,-0.0043,-0.0041,-0.023,0.0125,0.0176,0.1874,0
18788411,0.9997,-0.0043,-0.0041,-0.023,0.01,0.0032,0.1894,0
18788578,0.9997,-0.0043,-0.004,-0.023,0.0128,-0.0002,0.1609,0
18788745,0.9997,-0.0043,-0.004,-0.023,0.0089,0.0015,0.1753,0
18788911,0.9997,-0.0043,-0.0041,-0.023,-0.0129,-0.0191,0.1575,0
18789078,0.9997,-0.0043,-0.0041,-0.023,-0.0237,-0.007,0.1578,0
18789245,0.9997,-0.0043,-0.004,-0.023,-0.02,-0.0071,0.1712,0
18789411,0.9997,-0.0043,-0.0041,-0.023,0.008,-0.0068,0.1747,0
18789578,0.9997,-0.0043,-0.0041,-0.023,0,-0.0009,0.1775,0
18789745,0.9997,-0.0043,-0.004,-0.023,-0.014,0.0013,0.1657,0
18789911,0.9997,-0.0043,-0.004,-0.023,-0.0041,-0.0194,0.1541,0
18790078,0.9997,-0.0043,-0.004,-0.023,-0.0142,-0.0117,0.1483,0
18790245,0.9997,-0.0043,-0.004,-0.023,-0.0294,-0.0104,0.1623,0
18790411,0.9997,-0.0043,-0.004,-0.023,0.0005,-0.0009,0.1749,0
18790578,0.9997,-0.0043,-0.004,-0.0231,0.0152,0.0192,0.1769,0
18790745,0.9997,-0.0043,-0.004,-0.0231,0.0147,0.0132,0.1916,0
18790911,0.9997,-0.0043,-0.004,-0.023,0.0027,0.0039,0.178,0
18791078,0.9997,-0.0043,-0.004,-0.023,-0.0219,-0.0058,0.1526,0
18791245,0.9997,-0.0043,-0.004,-0.0231,-0.0239,0.0008,0.1544,0
18791411,0.9997,-0.0043,-0.004,-0.0231,-0.0228,0.0035,0.1535,0
18791578,0.9997,-0.0043,-0.004,-0.023,-0.0009,-0.0038,0.1715,0
18791745,0.9997,-0.0043,-0.004,-0.0231,0.003,0.005,0.1866,0
18791911,0.9997,-0.0043,-0.004,-0.0231,0.018,0.0061,0.1866,0
18792078,0.9997,-0.0043,-0.004,-0.0231,-0.0115,0.011,0.1709,0
18792245,0.9997,-0.0043,-0.004,-0.0231,-0.016,-0.0116,0.1752,0
18792411,0.9997,-0.0043,-0.004,-0.0231,-0.0242,-0.0188,0.1481,0
18792578,0.9997,-0.0043,-0.004,-0.0231,-0.0134,-0.0096,0.1588,0
18792745,0.9997,-0.0043,-0.004,-0.0231,0.0026,-0.0115,0.1695,0
18792911,0.9997,-0.0043,-0.004,-0.0231,0.024,0.0006,0.1794,0
18793078,0.9997,-0.0043,-0.004,-0.0231,0.0207,-0.0041,0.1831,0
18793245,0.9997,-0.0043,-0.004,-0.0231,0.0109,-0.0082,0.1874,0
18793411,0.9997,-0.0043,-0.004,-0.0231,-0.0111,-0.0114,0.1615,0
18793578,0.9997,-0.0043,-0.004,-0.0231,-0.017,0.0023,0.1424,0
18793745,0.9997,-0.0043,-0.004,-0.0231,-0.0064,-0.0231,0.1464,0
18793911,0.9997,-0.0043,-0.004,-0.0231,-0.0082,-0.0053,0.1722,0
18794078,0.9997,-0.0043,-0.004,-0.0231,0.0096,0.0054,0.1642,0
18794245,0.9997,-0.0043,-0.004,-0.0231,0.0381,0.0095,0.1724,0
18794412,0.9997,-0.0043,-0.004,-0.0231,0.0032,-0.006,0.1616,0
18794578,0.9997,-0.0043,-0.004,-0.0231,-0.0024,-0.0152,0.161,0
18794745,0.9997,-0.0043,-0.004,-0.0231,-0.0128,0.0003,0.1456,0
18794912,0.9997,-0.0043,-0.004,-0.0231,-0.0035,-0.0092,0.1612,0
18795078,0.9997,-0.0043,-0.004,-0.0231,0.0009,0.0067,0.1671,0
18795245,0.9997,-0.0043,-0.004,-0.023,0.019,0.0016,0.1844,0
18795412,0.9997,-0.0043,-0.004,-0.023,0.0067,0.0034,0.1858,0
18795578,0.9997,-0.0043,-0.004,-0.023,0.0052,-0.004,0.1877,0
18795745,0.9997,-0.0043,-0.004,-0.023,0.0079,-0.0178,0.1709,0
18795912,0.9997,-0.0043,-0.004,-0.023,-0.0114,-0.016,0.1418,0
18796078,0.9997,-0.0043,-0.004,-0.023,-0.0204,-0.0001,0.1429,0
18796245,0.9997,-0.0043,-0.004,-0.023,-0.0104,-0.0051,0.1644,0
18796412,0.9997,-0.0043,-0.004,-0.023,0.0046,-0.0045,0.1728,0
18796578,0.9997,-0.0043,-0.004,-0.023,0.0109,0.0009,0.1874,0
18796745,0.9997,-0.0043,-0.004,-0.023,0.0011,-0.0055,0.1724,0
18796912,0.9997,-0.0043,-0.004,-0.023,0.0161,-0.0065,0.1733,0
18797078,0.9997,-0.0043,-0.004,-0.023,-0.0144,-0.0217,0.1586,0
18797245,0.9997,-0.0043,-0.004,-0.023,-0.0342,-0.0027,0.1513,0
18797412,0.9997,-0.0043,-0.004,-0.023,-0.0077,-0.0053,0.1615,0
18797578,0.9997,-0.0043,-0.004,-0.023,0.0068,0.0136,0.1798,0
18797745,0.9997,-0.0043,-0.004,-0.023,0.0242,0.0154,0.1836,0
18797912,0.9997,-0.0043,-0.004,-0.023,-0.0037,-0.0057,0.1797,0
18798078,0.9997,-0.0043,-0.004,-0.023,0.0005,-0.0057,0.1801,0
18798245,0.9997,-0.0043,-0.004,-0.023,-0.0026,-0.0158,0.1638,0
18798412,0.9997,-0.0043,-0.004,-0.023,-0.0134,-0.008,0.1592,0
18798578,0.9997,-0.0043,-0.004,-0.023,-0.0117,-0.0084,0.1585,0
18798745,0.9997,-0.0043,-0.004,-0.023,0.0061,0.0149,0.1633,0
18798912,0.9997,-0.0043,-0.004,-0.023,0.0177,0.0161,0.1879,0
18799078,0.9997,-0.0043,-0.004,-0.023,0.0098,-0.0022,0.1921,0
18799245,0.9997,-0.0043,-0.004,-0.023,-0.0053,-0.0013,0.1614,0
18799412,0.9997,-0.0043,-0.004,-0.023,-0.0015,-0.008,0.1608,0
18799578,0.9997,-0.0043,-0.004,-0.023,-0.0182,0.0016,0.1556,0
18799745,0.9997,-0.0043,-0.004,-0.023,-0.0133,0.0018,0.1634,0
18799912,0.9997,-0.0043,-0.004,-0.023,0.0059,0.0091,0.1778,0
18800078,0.9997,-0.0043,-0.004,-0.023,0.0091,0.009,0.1878,0
18800245,0.9997,-0.0043,-0.004,-0.023,0.0175,0.0204,0.1838,0
18800412,0.9997,-0.0043,-0.004,-0.023,-0.0015,-0.0126,0.1619,0
18800578,0.9997,-0.0043,-0.004,-0.023,-0.0075,-0.0052,0.1652,0
18800745,0.9997,-0.0043,-0.004,-0.023,-0.0127,-0.0124,0.1565,0
18800912,0.9997,-0.0043,-0.004,-0.023,-0.0165,0.0061,0.1552,0
18801078,0.9997,-0.0043,-0.004,-0.023,-0.0032,0.0014,0.1548,0
18801245,0.9997,-0.0043,-0.004,-0.023,0.0135,-0.0004,0.1598,0
18801412,0.9997,-0.0043,-0.004,-0.023,0.0067,-0.0112,0.1872,0
18801578,0.9997,-0.0043,-0.004,-0.023,0.0079,-0.002,0.1547,0
18801745,0.9997,-0.0043,-0.004,-0.023,-0.0097,-0.009,0.1583,0
18801912,0.9997,-0.0043,-0.004,-0.0229,-0.0229,-0.001,0.1613,0
18802078,0.9997,-0.0043,-0.004,-0.0229,-0.0092,-0.0021,0.1474,0
18802245,0.9997,-0.0044,-0.004,-0.0229,0.006,0.0136,0.1783,0
18802412,0.9997,-0.0044,-0.004,-0.0229,0.0151,0.0098,0.1892,0
18802578,0.9997,-0.0044,-0.004,-0.0229,-0.0036,0.0113,0.1761,0
18802745,0.9997,-0.0044,-0.004,-0.0229,0.0039,0.0097,0.1613,0
18802912,0.9997,-0.0044,-0.004,-0.0229,0.0028,-0.0051,0.1862,0
18803078,0.9997,-0.0044,-0.004,-0.0229,-0.0214,0.0025,0.1667,0
18803245,0.9997,-0.0044,-0.004,-0.0229,-0.0002,-0.0019,0.1531,0
18803412,0.9997,-0.0044,-0.004,-0.0229,0.0037,0.0164,0.164,0
18803578,0.9997,-0.0044,-0.004,-0.0229,0.0024,0.0078,0.1765,0
18803745,0.9997,-0.0044,-0.004,-0.0229,0.0048,-0.0057,0.1678,0
18803912,0.9997,-0.0044,-0.004,-0.0229,0.0202,0.0024,0.1718,0
18804078,0.9997,-0.0044,-0.004,-0.0229,-0.0051,-0.0072,0.1601,0
18804245,0.9997,-0.0044,-0.004,-0.0229,-0.0133,-0.0148,0.1584,0
18804412,0.9997,-0.0044,-0.004,-0.0229,-0.0144,-0.0151,0.1661,0
18804578,0.9997,-0.0044,-0.004,-0.0229,0.0055,0.0001,0.1808,0
18804745,0.9997,-0.0043,-0.004,-0.0229,0.0132,0.0077,0.1796,0
18804912,0.9997,-0.0044,-0.004,-0.0229,0.0284,0.0074,0.1738,0
18805078,0.9997,-0.0044,-0.004,-0.0229,-0.0002,0.0045,0.1747,0
18805245,0.9997,-0.0044,-0.004,-0.0229,-0.0028,0.0129,0.1718,0
18805412,0.9997,-0.0044,-0.004,-0.0229,-0.008,-0.0018,0.1466,0
18805578,0.9997,-0.0044,-0.004,-0.0229,0.0023,-0.0008,0.1675,0
18805745,0.9997,-0.0044,-0.004,-0.0229,-0.0047,-0.0126,0.1651,0
18805912,0.9997,-0.0043,-0.004,-0.0229,0.009,-0.0042,0.1754,0
18806078,0.9997,-0.0043,-0.004,-0.0229,0.0121,0.0092,0.1733,0
18806245,0.9997,-0.0043,-0.004,-0.0229,0.0088,0.0085,0.1674,0
18806412,0.9997,-0.0043,-0.004,-0.0229,-0.02,-0.0067,0.1546,0
18806578,0.9997,-0.0043,-0.004,-0.0229,-0.0236,-0.0098,0.1678,0
18806745,0.9997,-0.0043,-0.004,-0.0229,-0.0175,-0.0065,0.1597,0
18806912,0.9997,-0.0043,-0.004,-0.0229,0.0043,0.0085,0.1672,0
18807078,0.9997,-0.0043,-0.004,-0.0229,0.0201,-0.0017,0.1902,0
18807245,0.9997,-0.0043,-0.004,-0.0229,0.0167,0.0049,0.1872,0
18807412,0.9997,-0.0043,-0.004,-0.0229,0.019,0.002,0.1512,0
18807578,0.9997,-0.0043,-0.004,-0.0229,-0.012,0.0022,0.1946,0
18807745,0.9997,-0.0043,-0.004,-0.0229,-0.0074,-0.0051,0.1399,0
18807912,0.9997,-0.0043,-0.004,-0.0229,-0.006,0.0096,0.1557,0
18808078,0.9997,-0.0043,-0.004,-0.0229,0.0013,0.0034,0.1833,0
18808245,0.9997,-0.0043,-0.004,-0.0229,0.0141,0.0164,0.1692,0
18808412,0.9997,-0.0043,-0.004,-0.0229,0.0148,-0.0009,0.1785,0
18808578,0.9997,-0.0043,-0.004,-0.0229,0.0042,-0.003,0.1572,0
18808745,0.9997,-0.0043,-0.004,-0.0229,-0.0099,-0.011,0.1845,0
18808912,0.9997,-0.0043,-0.004,-0.0229,0.0069,-0.0007,0.1304,0
18809078,0.9997,-0.0043,-0.004,-0.0229,-0.0163,-0.0096,0.17,0
18809245,0.9997,-0.0043,-0.004,-0.0229,-0.0036,0.0078,0.1974,0
18809412,0.9997,-0.0043,-0.004,-0.0229,0.0166,0.0117,0.1572,0
18809578,0.9997,-0.0043,-0.004,-0.0229,0.0126,0.0147,0.1726,0
18809745,0.9997,-0.0043,-0.004,-0.0229,0.0083,-0.0041,0.1696,0
18809912,0.9997,-0.0043,-0.004,-0.0229,0.0005,0.0007,0.146,0
18810078,0.9997,-0.0043,-0.004,-0.0229,-0.0154,-0.0135,0.1575,0
18810245,0.9997,-0.0043,-0.004,-0.0229,0,-0.0124,0.1556,0
18810412,0.9997,-0.0043,-0.004,-0.0229,0.0112,-0.0028,0.1651,0
18810578,0.9997,-0.0043,-0.004,-0.0229,-0.0031,0.0066,0.1932,0
18810745,0.9997,-0.0043,-0.004,-0.0229,0.0097,0.0039,0.1806,0
18810912,0.9997,-0.0043,-0.004,-0.0229,0.0152,0.0097,0.178,0
18811079,0.9997,-0.0043,-0.004,-0.0229,-0.006,-0.0025,0.1722,0
18811245,0.9997,-0.0043,-0.004,-0.0229,0.0004,-0.012,0.1581,0
18811412,0.9997,-0.0043,-0.004,-0.0229,-0.0127,-0.0053,0.1444,0
18811579,0.9997,-0.0043,-0.004,-0.0229,0.0075,-0.0049,0.1707,0
18811745,0.9997,-0.0043,-0.004,-0.0229,0.0162,-0.0058,0.1868,0
18811912,0.9997,-0.0043,-0.004,-0.0229,0.0159,-0.0055,0.1754,0
18812079,0.9997,-0.0043,-0.004,-0.0229,0.0058,0.0027,0.1811,0
18812245,0.9997,-0.0043,-0.004,-0.0229,-0.0255,0.002,0.1611,0
18812412,0.9997,-0.0043,-0.004,-0.0229,-0.0083,0.0034,0.1425,0
18812579,0.9997,-0.0043,-0.004,-0.0229,-0.0138,-0.0021,0.1353,0
18812745,0.9997,-0.0043,-0.004,-0.0229,0.0032,-0.0004,0.1649,0
18812912,0.9997,-0.0043,-0.004,-0.0229,0.0017,0.015,0.1759,0
18813079,0.9997,-0.0043,-0.004,-0.0229,0.0071,0.0127,0.1788,0
18813245,0.9997,-0.0043,-0.004,-0.0229,0.0026,0.0011,0.1747,0
18813412,0.9997,-0.0043,-0.004,-0.0229,-0.021,0.0031,0.1678,0
18813579,0.9997,-0.0043,-0.004,-0.0229,-0.0104,-0.0178,0.1675,0
18813745,0.9997,-0.0043,-0.004,-0.0229,-0.0176,-0.0092,0.1636,0
18813912,0.9997,-0.0043,-0.004,-0.0229,0.0153,0.0122,0.1706,0
18814079,0.9997,-0.0043,-0.004,-0.0229,0.0161,0.0129,0.1897,0
18814245,0.9997,-0.0043,-0.004,-0.0229,0.0128,0.0062,0.1648,0
18814412,0.9997,-0.0043,-0.004,-0.0229,0.0103,0.014,0.1742,0
18814579,0.9997,-0.0043,-0.004,-0.0229,-0.0148,0.0054,0.1524,0
18814745,0.9997,-0.0043,-0.004,-0.0229,-0.0183,-0.0098,0.1426,0
18814912,0.9997,-0.0043,-0.004,-0.0229,-0.0036,-0.0211,0.1651,0
18815079,0.9997,-0.0043,-0.004,-0.0229,-0.0015,0.0089,0.1726,0
18815245,0.9997,-0.0043,-0.004,-0.0229,0.0199,0.0111,0.1724,0
18815412,0.9997,-0.0043,-0.004,-0.0229,0.0036,0.0038,0.1788,0
18815579,0.9997,-0.0043,-0.0039,-0.0229,0.0179,-0.0031,0.1832,0
18815745,0.9997,-0.0043,-0.004,-0.0229,0.0002,-0.0048,0.1511,0
18815912,0.9997,-0.0043,-0.004,-0.0229,-0.0004,-0.0142,0.1617,0
18816079,0.9997,-0.0043,-0.004,-0.0229,-0.006,-0.0136,0.1568,0
18816245,0.9997,-0.0043,-0.004,-0.0229,0.0095,0.0041,0.173,0
18816412,0.9997,-0.0043,-0.004,-0.0229,0.0071,0.0162,0.1759,0
18816579,0.9997,-0.0043,-0.004,-0.0229,0.0233,0.0071,0.1832,0
18816745,0.9997,-0.0043,-0.004,-0.0229,0.0132,0.0032,0.1663,0
18816912,0.9997,-0.0043,-0.004,-0.0229,-0.0183,0.0001,0.1609,0
18817079,0.9997,-0.0043,-0.004,-0.0229,-0.006,-0.0105,0.1655,0
18817245,0.9997,-0.0043,-0.004,-0.0229,-0.0051,0.0011,0.1585,0
18817412,0.9997,-0.0043,-0.004,-0.0229,0.0077,0.01,0.1741,0
18817579,0.9997,-0.0043,-0.004,-0.0229,0.0215,0.014,0.1843,0
18817745,0.9997,-0.0043,-0.004,-0.0229,0.0173,0.0028,0.1738,0
18817912,0.9997,-0.0043,-0.004,-0.0229,0.0051,-0.0014,0.1679,0
18818079,0.9997,-0.0043,-0.004,-0.0229,-0.011,-0.0038,0.1669,0
18818245,0.9997,-0.0043,-0.004,-0.0229,-0.0259,-0.0131,0.1671,0
18818412,0.9997,-0.0043,-0.004,-0.0229,-0.0044,-0.0094,0.1719,0
18818579,0.9997,-0.0043,-0.004,-0.0229,0.0107,0.0035,0.1667,0
18818745,0.9997,-0.0043,-0.004,-0.0229,0.014,0.0118,0.185,0
18818912,0.9997,-0.0043,-0.004,-0.0229,0.0127,0.0186,0.2026,0
18819079,0.9997,-0.0043,-0.004,-0.0229,0.0019,-0.003,0.1604,0
18819245,0.9997,-0.0043,-0.004,-0.0228,0.0003,-0.0063,0.1565,0
18819412,0.9997,-0.0043,-0.004,-0.0228,-0.0053,-0.0135,0.1639,0
18819579,0.9997,-0.0043,-0.004,-0.0228,-0.0079,0.0127,0.1585,0
18819745,0.9997,-0.0043,-0.004,-0.0228,-0.0001,-0.0016,0.1684,0
18819912,0.9997,-0.0043,-0.004,-0.0228,0.0124,0.0067,0.1921,0
18820079,0.9997,-0.0043,-0.004,-0.0228,0.0114,-0.004,0.1886,0
18820245,0.9997,-0.0043,-0.004,-0.0228,0.0085,-0.0107,0.1735,0
18820412,0.9997,-0.0043,-0.004,-0.0228,-0.0134,-0.0202,0.158,0
18820579,0.9997,-0.0043,-0.004,-0.0228,-0.012,-0.0196,0.1441,0
18820745,0.9997,-0.0043,-0.004,-0.0228,-0.0067,0.0057,0.1614,0
18820912,0.9997,-0.0043,-0.004,-0.0228,0.0185,0.0132,0.1749,0
18821079,0.9997,-0.0043,-0.004,-0.0228,0.0182,0.0034,0.1779,0
18821245,0.9997,-0.0043,-0.004,-0.0228,0.0167,0,0.1897,0
18821412,0.9997,-0.0043,-0.004,-0.0228,0.019,-0.0002,0.1762,0
18821579,0.9997,-0.0043,-0.004,-0.0228,-0.0142,-0.0044,0.1542,0
18821745,0.9997,-0.0043,-0.004,-0.0228,-0.0262,0.0006,0.1601,0
18821912,0.9997,-0.0043,-0.004,-0.0228,-0.0234,-0.0082,0.1658,0
18822079,0.9997,-0.0043,-0.004,-0.0228,0.0012,0.0076,0.1682,0
18822245,0.9997,-0.0043,-0.004,-0.0228,0.0132,0.0149,0.1716,0
18822412,0.9997,-0.0043,-0.004,-0.0228,0.0132,-0.004,0.182,0
18822579,0.9997,-0.0043,-0.004,-0.0228,-0.0053,0.0028,0.1777,0
18822745,0.9997,-0.0043,-0.004,-0.0228,-0.0083,-0.0118,0.1611,0
18822912,0.9997,-0.0043,-0.004,-0.0228,-0.0105,-0.0182,0.1563,0
18823079,0.9997,-0.0043,-0.004,-0.0228,-0.0095,-0.0026,0.1769,0
18823245,0.9997,-0.0043,-0.004,-0.0228,0.015,0.0053,0.1785,0
18823412,0.9997,-0.0043,-0.004,-0.0228,0.0075,0.0158,0.1925,0
18823579,0.9997,-0.0043,-0.004,-0.0228,0.0067,-0.0005,0.1732,0
18823745,0.9997,-0.0043,-0.004,-0.0228,0.0099,-0.011,0.1709,0
18823912,0.9997,-0.0043,-0.004,-0.0228,-0.0163,-0.0043,0.1524,0
18824079,0.9997,-0.0043,-0.004,-0.0228,-0.0178,-0.0013,0.1465,0
18824245,0.9997,-0.0043,-0.004,-0.0228,-0.0084,0.0115,0.1689,0
18824412,0.9997,-0.0043,-0.004,-0.0228,0.016,0.0093,0.1683,0
18824579,0.9997,-0.0043,-0.004,-0.0228,0.0083,0.0085,0.1739,0
18824745,0.9997,-0.0043,-0.004,-0.0228,0.0092,0.006,0.1674,0
18824912,0.9997,-0.0043,-0.004,-0.0228,0.0113,0.004,0.1779,0
18825079,0.9997,-0.0043,-0.004,-0.0228,-0.0185,-0.0048,0.1527,0
18825245,0.9997,-0.0043,-0.004,-0.0228,-0.0123,-0.007,0.1594,0
18825412,0.9997,-0.0043,-0.004,-0.0228,-0.0014,-0.0083,0.1744,0
18825579,0.9997,-0.0043,-0.004,-0.0228,0.0031,0.0088,0.1637,0
18825745,0.9997,-0.0043,-0.004,-0.0228,0.0084,0.0051,0.1729,0
18825912,0.9997,-0.0043,-0.004,-0.0228,0.0079,0.0217,0.1673,0
18826079,0.9997,-0.0043,-0.004,-0.0228,0.005,0.0089,0.1699,0
18826245,0.9997,-0.0043,-0.004,-0.0228,-0.0014,-0.0071,0.1502,0
18826412,0.9997,-0.0043,-0.004,-0.0228,-0.0182,-0.0082,0.1615,0
18826579,0.9997,-0.0043,-0.004,-0.0228,-0.0042,-0.0125,0.1658,0
18826745,0.9997,-0.0044,-0.004,-0.0228,0.0065,-0.0052,0.1748,0
18826912,0.9997,-0.0044,-0.004,-0.0228,0.0159,0.0284,0.1888,0
18827079,0.9997,-0.0044,-0.004,-0.0228,0.0144,0.0125,0.1781,0
18827245,0.9997,-0.0043,-0.004,-0.0228,0.0112,-0.002,0.1733,0
18827412,0.9997,-0.0043,-0.004,-0.0228,-0.0018,-0.0036,0.1707,0
18827579,0.9997,-0.0043,-0.004,-0.0228,-0.0166,0.0021,0.1647,0
18827746,0.9997,-0.0043,-0.004,-0.0228,0.003,0.0004,0.1711,0
18827912,0.9997,-0.0043,-0.004,-0.0228,0.0046,0.0155,0.1685,0
18828079,0.9997,-0.0044,-0.004,-0.0228,0.0021,0.0156,0.1728,0
18828246,0.9997,-0.0044,-0.004,-0.0228,0.0054,0.0065,0.1728,0
18828412,0.9997,-0.0044,-0.004,-0.0228,0.0038,0.0031,0.1817,0
18828579,0.9997,-0.0043,-0.004,-0.0228,-0.0197,-0.0087,0.1686,0
18828746,0.9997,-0.0043,-0.004,-0.0228,-0.0077,-0.007,0.1655,0
18828912,0.9997,-0.0043,-0.004,-0.0228,-0.0133,-0.0095,0.1617,0
18829079,0.9997,-0.0043,-0.004,-0.0229,0.0115,0.0048,0.1626,0
18829246,0.9997,-0.0043,-0.004,-0.0228,0.0161,0.0007,0.1852,0
18829412,0.9997,-0.0043,-0.004,-0.0228,0.0079,0.0019,0.1653,0
18829579,0.9997,-0.0043,-0.004,-0.0228,0.0073,-0.0048,0.1701,0
18829746,0.9997,-0.0043,-0.0041,-0.0228,-0.0085,-0.0172,0.1672,0
18829912,0.9997,-0.0043,-0.0041,-0.0228,0.0053,-0.0186,0.1731,0
18830079,0.9997,-0.0043,-0.0041,-0.0228,-0.0036,-0.0092,0.1765,0
18830246,0.9997,-0.0043,-0.0041,-0.0228,0.002,-0.0127,0.1667,0
18830412,0.9997,-0.0043,-0.0041,-0.0228,0.0199,0.0047,0.1864,0
18830579,0.9997,-0.0043,-0.0041,-0.0228,0.0092,0.0039,0.1759,0
18830746,0.9997,-0.0043,-0.0041,-0.0228,-0.0188,0.0019,0.1812,0
18830912,0.9997,-0.0043,-0.0041,-0.0228,-0.0071,-0.0056,0.1566,0
18831079,0.9997,-0.0043,-0.0041,-0.0228,-0.0088,-0.0133,0.155,0
18831246,0.9997,-0.0043,-0.0041,-0.0228,0.008,-0.001,0.1633,0
18831412,0.9997,-0.0043,-0.0041,-0.0228,-0.0145,0.0085,0.1604,0
18831579,0.9997,-0.0043,-0.0041,-0.0228,-0.0036,0.0008,0.1811,0
18831746,0.9997,-0.0043,-0.0041,-0.0228,-0.0142,0.0013,0.1722,0
18831912,0.9997,-0.0043,-0.0041,-0.0228,-0.0082,0.0005,0.1624,0
18832079,0.9997,-0.0043,-0.0041,-0.0228,-0.0085,0.0001,0.1828,0
18832246,0.9997,-0.0043,-0.0041,-0.0228,-0.0063,-0.0069,0.165,0
18832412,0.9997,-0.0043,-0.0041,-0.0228,0.0028,-0.0057,0.1757,0
18832579,0.9997,-0.0043,-0.0041,-0.0228,0.0015,0.0045,0.1809,0
18832746,0.9997,-0.0043,-0.0041,-0.0228,0.0068,-0.0015,0.1786,0
18832912,0.9997,-0.0043,-0.0041,-0.0228,-0.0051,0.0063,0.1678,0
18833079,0.9997,-0.0043,-0.0041,-0.0228,-0.0086,-0.0018,0.182,0
18833246,0.9997,-0.0043,-0.0041,-0.0228,-0.0032,-0.0005,0.1645,0
18833412,0.9997,-0.0043,-0.0041,-0.0228,0.0018,0.0011,0.1694,0
18833579,0.9997,-0.0043,-0.0041,-0.0228,-0.0129,0.0073,0.1959,0
18833746,0.9997,-0.0043,-0.0041,-0.0228,0.0102,0.0031,0.1684,0
18833912,0.9997,-0.0043,-0.0041,-0.0228,-0.0022,0.0107,0.1744,0
18834079,0.9997,-0.0043,-0.0041,-0.0228,-0.0088,0.0048,0.1683,0
18834246,0.9997,-0.0043,-0.0041,-0.0228,-0.0102,0.0002,0.1661,0
18834412,0.9997,-0.0043,-0.0041,-0.0228,-0.0071,0.0013,0.1739,0
18834579,0.9997,-0.0043,-0.0041,-0.0228,0.0012,0.0063,0.171,0
18834746,0.9997,-0.0043,-0.0041,-0.0228,0.0054,-0.0025,0.1613,0
18834912,0.9997,-0.0043,-0.0041,-0.0228,0.0064,0.0121,0.1808,0
18835079,0.9997,-0.0043,-0.0041,-0.0228,0.0072,0.0202,0.1821,0
18835246,0.9997,-0.0043,-0.0041,-0.0228,0.0032,0.0043,0.1756,0
18835412,0.9997,-0.0043,-0.0041,-0.0228,-0.0036,-0.0008,0.1703,0
18835579,0.9997,-0.0043,-0.0041,-0.0228,-0.007,-0.005,0.1703,0
18835746,0.9997,-0.0043,-0.0041,-0.0228,0.0043,0.0093,0.169,0
18835912,0.9997,-0.0043,-0.0041,-0.0228,-0.0102,0.0042,0.1709,0
18836079,0.9997,-0.0043,-0.0041,-0.0228,0.0084,0.0137,0.1615,0
18836246,0.9997,-0.0043,-0.0041,-0.0228,0.0033,0.0117,0.1687,0
18836412,0.9997,-0.0043,-0.0041,-0.0228,0.0105,-0.0047,0.1756,0
18836579,0.9997,-0.0043,-0.0041,-0.0228,-0.0096,-0.0036,0.1598,0
18836746,0.9997,-0.0043,-0.0041,-0.0228,-0.0148,-0.0154,0.1762,0
18836912,0.9997,-0.0043,-0.0041,-0.0228,-0.0079,-0.0042,0.1683,0
18837079,0.9997,-0.0043,-0.0041,-0.0228,-0.0095,-0.0033,0.1667,0
18837246,0.9997,-0.0043,-0.0041,-0.0228,0.0201,0.016,0.1711,0
18837412,0.9997,-0.0043,-0.0041,-0.0228,0.0006,0.0222,0.1683,0
18837579,0.9997,-0.0043,-0.0041,-0.0228,0.0098,0.011,0.173,0
18837746,0.9997,-0.0043,-0.0041,-0.0228,0.0059,-0.0124,0.1623,0
18837912,0.9997,-0.0043,-0.0041,-0.0228,-0.0172,0.0045,0.1701,0
18838079,0.9997,-0.0043,-0.0041,-0.0228,-0.0096,0.0065,0.1651,0
18838246,0.9997,-0.0043,-0.0041,-0.0228,0.0033,-0.0023,0.1754,0
18838412,0.9997,-0.0043,-0.0041,-0.0228,-0.0014,0.0136,0.1675,0
18838579,0.9997,-0.0043,-0.0041,-0.0228,0.004,-0.0012,0.1718,0
18838746,0.9997,-0.0043,-0.0041,-0.0228,0.0005,-0.0082,0.1609,0
18838912,0.9997,-0.0043,-0.0041,-0.0228,-0.0085,-0.002,0.1537,0
18839079,0.9997,-0.0043,-0.0041,-0.0228,-0.0152,-0.0042,0.1762,0
18839246,0.9997,-0.0043,-0.0041,-0.0228,-0.0036,-0.0044,0.1639,0
18839412,0.9997,-0.0043,-0.0041,-0.0228,-0.0028,-0.0085,0.1831,0
18839579,0.9997,-0.0043,-0.0041,-0.0228,0.0101,0.0118,0.179,0
18839746,0.9997,-0.0043,-0.0041,-0.0228,0.014,0.0043,0.169,0
18839912,0.9997,-0.0043,-0.0041,-0.0228,0.0053,0.008,0.1575,0
18840079,0.9997,-0.0043,-0.0041,-0.0228,-0.0052,0.0033,0.1484,0
18840246,0.9997,-0.0043,-0.0041,-0.0227,-0.0202,-0.0085,0.1617,0
18840412,0.9997,-0.0043,-0.0041,-0.0227,-0.0123,0.005,0.1749,0
18840579,0.9997,-0.0043,-0.0041,-0.0227,-0.0006,-0.0044,0.1756,0
18840746,0.9997,-0.0043,-0.0041,-0.0227,0.0187,0.0156,0.1667,0
18840912,0.9997,-0.0043,-0.0041,-0.0227,-0.0024,0.0094,0.1798,0
18841079,0.9997,-0.0043,-0.0041,-0.0227,-0.0038,-0.0014,0.159,0
18841246,0.9997,-0.0043,-0.0041,-0.0227,-0.0098,-0.0059,0.1561,0
18841412,0.9997,-0.0043,-0.0041,-0.0227,0.0058,-0.0044,0.1632,0
18841579,0.9997,-0.0043,-0.0041,-0.0227,0.0111,-0.0057,0.1705,0
18841746,0.9997,-0.0042,-0.0041,-0.0227,0.004,0.0047,0.1674,0
18841912,0.9997,-0.0043,-0.004,-0.0228,0.0275,0.0046,0.1752,0
18842079,0.9997,-0.0043,-0.004,-0.0228,-0.0004,-0.0028,0.1814,0
18842246,0.9997,-0.0043,-0.004,-0.0228,-0.0028,0.0055,0.1629,0
18842412,0.9997,-0.0043,-0.004,-0.0227,-0.0002,-0.0102,0.1622,0
18842579,0.9997,-0.0043,-0.004,-0.0227,-0.0121,-0.0146,0.1585,0
18842746,0.9997,-0.0043,-0.004,-0.0227,0.0032,-0.0051,0.1657,0
18842912,0.9997,-0.0043,-0.004,-0.0227,0.0019,-0.0006,0.1733,0
18843079,0.9997,-0.0043,-0.004,-0.0227,0.0074,0.0143,0.1725,0
18843246,0.9997,-0.0043,-0.004,-0.0228,0.0043,0.0129,0.163,0
18843412,0.9997,-0.0043,-0.004,-0.0228,-0.0035,-0.0092,0.1593,0
18843579,0.9997,-0.0043,-0.004,-0.0227,-0.0138,-0.0153,0.1714,0
18843746,0.9997,-0.0043,-0.004,-0.0227,-0.003,-0.0115,0.1739,0
18843912,0.9997,-0.0043,-0.004,-0.0227,-0.0061,-0.0042,0.1662,0
18844079,0.9997,-0.0043,-0.004,-0.0227,0.0095,0.0095,0.1838,0
18844246,0.9997,-0.0043,-0.004,-0.0227,0.0018,-0.0017,0.1762,0
18844413,0.9997,-0.0043,-0.004,-0.0227,0.0073,0.0035,0.1515,0
18844579,0.9997,-0.0043,-0.004,-0.0227,-0.0097,-0.0075,0.1686,0
18844746,0.9997,-0.0043,-0.004,-0.0227,-0.0175,-0.0051,0.1631,0
18844913,0.9997,-0.0043,-0.004,-0.0227,-0.0033,-0.0095,0.1568,0
18845079,0.9997,-0.0043,-0.004,-0.0227,-0.004,0.0046,0.1531,0
18845246,0.9997,-0.0043,-0.004,-0.0227,0.0113,0.0015,0.1735,0
18845413,0.9997,-0.0043,-0.004,-0.0227,0.0128,0.002,0.1669,0
18845579,0.9997,-0.0043,-0.004,-0.0227,0.0013,-0.0055,0.1671,0
18845746,0.9997,-0.0043,-0.004,-0.0227,-0.0056,-0.0015,0.1626,0
18845913,0.9997,-0.0043,-0.004,-0.0227,-0.0125,-0.0138,0.1632,0
18846079,0.9997,-0.0043,-0.004,-0.0227,-0.0117,-0.008,0.1659,0
18846246,0.9997,-0.0043,-0.0039,-0.0227,0.0055,-0.0095,0.1773,0
18846413,0.9997,-0.0043,-0.0039,-0.0227,0.0019,-0.0008,0.1935,0
18846579,0.9997,-0.0043,-0.0039,-0.0227,0.0158,0.0114,0.1743,0
18846746,0.9997,-0.0043,-0.004,-0.0227,0.0004,-0.003,0.1819,0
18846913,0.9997,-0.0043,-0.0039,-0.0227,-0.0159,-0.0002,0.167,0
18847079,0.9997,-0.0043,-0.0039,-0.0227,-0.0151,-0.0051,0.1631,0
18847246,0.6812,0.0001,-0.0058,0.732,0.0076,0.0026,0.1548,0
18847413,0.6812,0.0001,-0.0058,0.732,0.0019,-0.0065,0.1686,0
18847579,0.6812,0.0001,-0.0058,0.732,-0.0121,0.0063,0.1828,0
18847746,0.6812,0.0001,-0.0058,0.732,-0.0034,0.0063,0.1799,0
18847913,1,-0.0042,-0.004,0,0.0024,-0.0065,0.1523,0
18848079,1,-0.0042,-0.004,0,-0.0102,-0.0038,0.1695,0
18848246,1,-0.0042,-0.004,0,0.0021,-0.0005,0.1653,0
18848413,1,-0.0042,-0.004,0,0.0023,-0.0018,0.1595,0
18848579,1,-0.0042,-0.004,0,0.0054,0.0054,0.1659,0
18848746,1,-0.0042,-0.004,0,0.0176,-0.0046,0.173,0
18848913,1,-0.0042,-0.004,0,0.0096,0.0061,0.1701,0
18849079,1,-0.0042,-0.004,0,0.0114,-0.0045,0.1718,0
18849246,1,-0.0042,-0.004,0,0.0051,-0.0041,0.1631,0
18849413,1,-0.0042,-0.004,0,-0.0134,0.0011,0.1624,0
18849579,1,-0.0042,-0.004,0,-0.0138,-0.0004,0.1639,0
18849746,1,-0.0042,-0.004,0,0,-0.0001,0.1692,0
18849913,1,-0.0042,-0.004,0,0.0067,0.0056,0.1773,0
18850079,1,-0.0042,-0.004,0,0.0144,0.0079,0.1703,0
18850246,1,-0.0042,-0.004,0,0.0019,0.0071,0.1751,0
18850413,1,-0.0042,-0.004,0,-0.0028,0.0032,0.1569,0
18850579,1,-0.0042,-0.004,0,-0.008,-0.008,0.1562,0
18850746,1,-0.0042,-0.004,0,-0.0022,-0.0097,0.1689,0
18850913,1,-0.0042,-0.004,0,-0.0047,0.0041,0.1786,0
18851079,1,-0.0042,-0.0041,0,0.0021,0.0158,0.1905,0
18851246,1,-0.0041,-0.004,0,0.012,0.0039,0.1882,0
18851413,1,-0.0041,-0.004,0,0.0101,0.009,0.174,0
18851579,1,-0.0041,-0.004,0,-0.0159,0.0014,0.1684,0
18851746,1,-0.0041,-0.004,0,-0.0175,-0.0105,0.1683,0
18851913,1,-0.0041,-0.004,0,-0.017,-0.0095,0.1591,0
18852079,1,-0.0041,-0.004,0,-0.0149,-0.0073,0.1666,0
18852246,1,-0.0041,-0.004,0,0.0074,-0.0054,0.1798,0
18852413,1,-0.0041,-0.004,0,0.0156,-0.0097,0.1671,0
18852579,1,-0.0041,-0.004,0,-0.0029,-0.0025,0.1643,0
18852746,1,-0.0041,-0.004,0,-0.0089,0.004,0.1601,0
18852913,1,-0.0041,-0.004,0,-0.0087,-0.0132,0.1514,0
18853079,1,-0.0041,-0.004,0,-0.022,-0.0092,0.156,0
18853246,1,-0.0041,-0.0041,0,-0.0014,-0.0173,0.1679,0
18853413,1,-0.0041,-0.0041,0,0.0195,0.0067,0.1712,0
18853579,1,-0.0041,-0.0041,0,0.0088,0.0034,0.1915,0
18853746,1,-0.0041,-0.004,0,-0.0029,0.0024,0.182,0
18853913,1,-0.0041,-0.004,0,-0.0022,0.0072,0.1546,0
18854079,1,-0.0041,-0.004,0,-0.0063,-0.0166,0.1686,0
18854246,1,-0.0041,-0.004,0,-0.0093,-0.0274,0.168,0
18854413,1,-0.0041,-0.004,0,-0.0078,0.0009,0.178,0
18854579,1,-0.0041,-0.004,0,-0.013,0.0019,0.1736,0
18854746,1,-0.0041,-0.004,0,0.007,0.0032,0.1944,0
18854913,1,-0.0041,-0.004,0,0.01,0,0.1817,0
18855079,1,-0.0041,-0.0041,0,0.0031,-0.014,0.1639,0
18855246,1,-0.0041,-0.0041,0,-0.0137,-0.0131,0.1564,0
18855413,1,-0.0041,-0.004,0,-0.006,-0.0155,0.1686,0
18855579,1,-0.0041,-0.0041,0,-0.001,0.0075,0.1837,0
18855746,1,-0.0041,-0.0041,0,0.0133,-0.0034,0.1737,0
18855913,1,-0.0041,-0.004,0,0.0058,0.0102,0.184,0
18856079,1,-0.0041,-0.004,0,0.0227,-0.0043,0.1724,0
18856246,1,-0.0041,-0.004,0,0.0003,-0.0077,0.1692,0
18856413,1,-0.0041,-0.004,0,-0.0116,-0.0123,0.1699,0
18856579,1,-0.0041,-0.004,0,0.0048,0.0013,0.1641,0
18856746,1,-0.0041,-0.0041,0,-0.0042,0.0036,0.1641,0
18856913,1,-0.0041,-0.0041,0,-0.0047,0.0018,0.1886,0
18857079,1,-0.0041,-0.0041,0,0.0163,-0.0044,0.1776,0
18857246,1,-0.0041,-0.004,0,0.0186,-0.0068,0.1702,0
18857413,1,-0.0041,-0.004,0,-0.0045,-0.0026,0.1631,0
18857579,1,-0.0041,-0.004,0,-0.0037,-0.0194,0.1787,0
18857746,1,-0.0041,-0.004,0,-0.0034,-0.011,0.1584,0
18857913,1,-0.0041,-0.0041,0,0.0078,-0.0188,0.1739,0
18858079,1,-0.0041,-0.0041,0,0.0131,0.0034,0.1778,0
18858246,1,-0.0041,-0.004,0,0.0116,0.0094,0.1617,0
18858413,1,-0.0041,-0.004,0,0.005,0.0026,0.1864,0
18858579,1,-0.0041,-0.004,0,0.0029,-0.0069,0.1687,0
18858746,1,-0.0041,-0.004,0,-0.0154,-0.0101,0.1448,0
18858913,1,-0.0041,-0.004,0,-0.0008,-0.0224,0.1783,0
18859079,1,-0.0041,-0.004,0,-0.0009,-0.0229,0.1871,0
18859246,1,-0.0041,-0.004,0,0.0104,-0.008,0.159,0
18859413,1,-0.0041,-0.004,0,0.0201,0.0057,0.1814,0
18859579,1,-0.0041,-0.004,0,0.0065,0.0072,0.1988,0
18859746,1,-0.0041,-0.004,0,-0.0014,0.0002,0.1199,0
18859913,1,-0.0041,-0.004,0,-0.0142,-0.0108,0.1549,0
18860079,1,-0.0041,-0.004,0,-0.0177,-0.0162,0.164,0
18860246,1,-0.0041,-0.004,0.0001,0.0007,0.0032,0.1353,0
18860413,1,-0.0041,-0.004,0,-0.0062,0.0037,0.1928,0
18860579,1,-0.0041,-0.004,0,0.0372,-0.0113,0.2032,0
18860746,1,-0.0041,-0.004,0.0001,0.0347,-0.0201,0.1883,0
18860913,1,-0.0041,-0.004,0.0001,0.0056,-0.009,0.1696,0
18861080,1,-0.0041,-0.004,0.0001,-0.0283,-0.0163,0.1714,0
18861246,1,-0.0041,-0.004,0.0001,-0.0073,-0.0061,0.1911,0
18861413,1,-0.0041,-0.004,0.0001,0.0099,0.004,0.1627,0
18861580,1,-0.0041,-0.004,0.0001,0.0151,0.0148,0.1957,0
18861746,1,-0.0041,-0.004,0.0001,0.0264,0.0148,0.1913,0
18861913,1,-0.0042,-0.004,0,0.0199,-0.012,0.1657,0
18862080,1,-0.0042,-0.004,0,-0.0046,-0.0332,0.1901,0
18862246,1,-0.0042,-0.004,0,-0.0065,-0.002,0.1698,0
18862413,1,-0.0042,-0.0039,0,-0.0139,0.0171,0.132,0
18862580,1,-0.0042,-0.0039,0,0.0057,-0.0009,0.1737,0
18862746,1,-0.0042,-0.0039,0,0.0228,-0.0181,0.1369,0
18862913,1,-0.0042,-0.0039,0,-0.0085,0.0179,0.1756,0
18863080,1,-0.0042,-0.0039,0,-0.024,-0.0103,0.1539,0
18863246,1,-0.0042,-0.0039,0,-0.0058,0.0115,0.1112,0
18863413,1,-0.0042,-0.0039,0,-0.0035,0.0177,0.1776,0
18863580,1,-0.0042,-0.0039,0,0.0151,-0.0056,0.1744,0
18863746,1,-0.0042,-0.0039,0,0.0343,-0.0131,0.1746,0
18863913,1,-0.0042,-0.0039,0,-0.0006,-0.0145,0.1928,0
18864080,1,-0.0042,-0.0039,0,0.0038,-0.0039,0.1391,0
18864246,1,-0.0042,-0.0039,0,-0.0103,-0.0035,0.1558,0
18864413,1,-0.0042,-0.0039,0,-0.0061,0,0.177,0
18864580,1,-0.0042,-0.0039,0,0.0039,0.007,0.139,0
18864746,1,-0.0042,-0.0039,0,0.0225,-0.016,0.1879,0
18864913,1,-0.0042,-0.0039,0,0.0141,-0.004,0.1786,0
18865080,1,-0.0042,-0.0039,0,0.0032,0.0165,0.1657,0
18865246,1,-0.0042,-0.0039,0,0.0002,0.0084,0.1847,0
18865413,1,-0.0042,-0.0039,0,-0.0151,-0.0085,0.16,0
18865580,1,-0.0042,-0.0039,0,-0.012,0.0043,0.1561,0
18865746,1,-0.0042,-0.0039,0,-0.0005,0.0021,0.1698,0
18865913,1,-0.0042,-0.0039,0,0.0148,-0.023,0.1628,0
18866080,1,-0.0042,-0.0039,0,-0.0003,-0.0216,0.1724,0
18866246,1,-0.0042,-0.0039,0,0.0036,-0.0012,0.1727,0
18866413,1,-0.0042,-0.0039,0,0.002,0.017,0.1505,0
18866580,1,-0.0042,-0.0039,0,0.0001,0.0061,0.1618,0
18866746,1,-0.0042,-0.0039,0,-0.0064,-0.0053,0.1517,0
18866913,1,-0.0042,-0.0039,0,-0.003,-0.0085,0.1638,0
18867080,1,-0.0042,-0.0039,0,0.0073,-0.0029,0.1791,0
18867246,1,-0.0042,-0.0039,0,0.0159,0.0044,0.1828,0
18867413,1,-0.0042,-0.0039,0,0.0139,-0.0002,0.1623,0
18867580,1,-0.0042,-0.0039,0,0.0041,0.0043,0.1747,0
18867746,1,-0.0042,-0.0039,0,-0.0104,-0.0073,0.1605,0
18867913,1,-0.0042,-0.0039,0,-0.0092,-0.0056,0.1643,0
18868080,1,-0.0042,-0.0039,0,-0.0103,-0.0145,0.1786,0
18868246,1,-0.0042,-0.0039,0,0.0075,0.002,0.1746,0
18868413,1,-0.0042,-0.0039,0,0.001,0.0153,0.1711,0
18868580,1,-0.0042,-0.0039,0,-0.0023,0.0063,0.1703,0
18868746,1,-0.0042,-0.0039,0,0.0179,-0.0052,0.168,0
18868913,1,-0.0041,-0.0039,0,0.0073,-0.0161,0.1711,0
18869080,1,-0.0042,-0.0039,0,-0.0042,-0.0046,0.1525,0
18869246,1,-0.0042,-0.0039,0,0.008,-0.0052,0.1705,0
18869413,1,-0.0042,-0.0039,0,0.0037,-0.0023,0.1756,0
18869580,1,-0.0042,-0.0039,0,0.0101,0.0134,0.1711,0
18869746,1,-0.0042,-0.0039,0,-0.0071,0.0115,0.175,0
18869913,1,-0.0042,-0.0039,0,0.0018,-0.0097,0.1691,0
18870080,1,-0.0042,-0.0039,0,0.0087,-0.0091,0.1515,0
18870246,1,-0.0042,-0.0039,0,-0.0001,-0.0222,0.1646,0
18870413,1,-0.0042,-0.0039,0,0.0073,-0.0094,0.1688,0
18870580,1,-0.0042,-0.0039,0,-0.0141,0.0171,0.1603,0
18870746,1,-0.0042,-0.0039,0,-0.0105,0.0006,0.1717,0
18870913,1,-0.0042,-0.0039,0,0.0069,0.0082,0.1719,0
18871080,1,-0.0042,-0.0039,0,0.0111,-0.0165,0.1576,0
18871246,1,-0.0042,-0.0039,0,0.0064,-0.0107,0.1599,0
18871413,1,-0.0042,-0.0039,0,-0.005,0.0006,0.1644,0
18871580,1,-0.0041,-0.0039,0,-0.0069,0.0066,0.1693,0
18871746,1,-0.0041,-0.0039,0,0.0081,0.0082,0.1711,0
18871913,1,-0.0041,-0.0039,0,-0.0008,0.0013,0.1622,0
18872080,1,-0.0041,-0.0039,0,0.0069,-0.007,0.1726,0
18872246,1,-0.0041,-0.0039,0,0.0068,-0.0082,0.1741,0
18872413,1,-0.0042,-0.0039,0,-0.0073,0.0042,0.1631,0
18872580,1,-0.0041,-0.0039,0,0.0119,-0.0023,0.1722,0
18872746,1,-0.0041,-0.0039,0,0.0024,0.0008,0.1775,0
18872913,1,-0.0041,-0.0039,0,0.0055,0.0038,0.1702,0
18873080,1,-0.0041,-0.0039,0,0.0107,-0.0001,0.1853,0
18873246,1,-0.0041,-0.0039,0,0.0265,-0.0034,0.1679,0
18873413,1,-0.0041,-0.0039,0,-0.0001,-0.0132,0.1732,0
18873580,1,-0.0041,-0.004,0,0.0096,-0.0078,0.1709,0
18873746,1,-0.0041,-0.004,0.0001,-0.0066,-0.0022,0.1674,0
18873913,1,-0.0041,-0.004,0.0001,-0.0143,-0.0037,0.1724,0
18874080,1,-0.0041,-0.0039,0.0001,0.0079,-0.0114,0.1645,0
18874246,1,-0.0041,-0.0039,0.0001,-0.017,0.0056,0.1617,0
18874413,1,-0.0041,-0.0039,0.0001,-0.0106,-0.0048,0.1771,0
18874580,1,-0.0041,-0.0039,0.0001,-0.015,-0.0033,0.1748,0
18874746,1,-0.0041,-0.0039,0.0001,-0.0135,-0.0054,0.1629,0
18874913,1,-0.0041,-0.0039,0.0001,-0.0104,-0.002,0.1641,0
18875080,1,-0.0041,-0.0039,0.0001,0.0064,-0.0032,0.1726,0
18875246,1,-0.0041,-0.0039,0.0001,0.0143,-0.0116,0.1723,0
18875413,1,-0.0041,-0.0039,0.0001,0.0183,-0.0004,0.1816,0
18875580,1,-0.0041,-0.0039,0.0001,0.008,0.0022,0.1768,0
18875746,1,-0.0041,-0.0039,0.0001,-0.0121,-0.0108,0.1638,0
18875913,1,-0.0041,-0.0039,0.0001,-0.0042,0.0031,0.1568,0
18876080,1,-0.0041,-0.0039,0.0001,-0.0019,0.0016,0.1752,0
18876246,1,-0.0041,-0.0039,0.0001,0.0083,-0.0095,0.1803,0
18876413,1,-0.0041,-0.0039,0.0001,-0.0124,0.0018,0.1753,0
18876580,1,-0.0041,-0.0039,0.0001,-0.0096,-0.013,0.1822,0
18876746,1,-0.0041,-0.0039,0.0001,-0.0004,0.0015,0.1583,0
18876913,1,-0.0041,-0.0039,0.0001,0.001,0.0065,0.1625,0
18877080,1,-0.0041,-0.0039,0.0001,-0.0056,-0.0057,0.1597,0
18877246,1,-0.0041,-0.0039,0.0001,0.007,0.0062,0.1585,0
18877413,1,-0.0041,-0.0039,0.0001,-0.0197,0.0001,0.1598,0
18877580,1,-0.0041,-0.0039,0.0001,-0.005,-0.0233,0.1677,0
18877747,1,-0.0041,-0.0039,0.0001,0.0119,-0.0095,0.1707,0
18877913,1,-0.0041,-0.0039,0.0001,0.0037,-0.008,0.179,0
18878080,1,-0.0041,-0.0039,0.0001,-0.0129,0.0003,0.1763,0
18878247,1,-0.0041,-0.0039,0.0001,-0.0005,0.0041,0.1719,0
18878413,1,-0.0041,-0.0039,0.0001,-0.001,-0.0009,0.1679,0
18878580,1,-0.0041,-0.0039,0.0001,0.0023,-0.0193,0.1809,0
18878747,1,-0.0041,-0.0039,0.0001,0.0133,-0.0171,0.1648,0
18878913,1,-0.0041,-0.0039,0.0001,0.0011,0.0117,0.1694,0
18879080,1,-0.0041,-0.0039,0.0001,-0.0081,0.0002,0.1607,0
18879247,1,-0.0041,-0.0039,0.0001,-0.005,-0.0071,0.1646,0
18879413,1,-0.0041,-0.0039,0.0001,-0.0066,0.0052,0.1701,0
18879580,1,-0.0041,-0.0039,0.0001,0.0072,-0.0051,0.1695,0
18879747,1,-0.0041,-0.0039,0.0001,0.0043,-0.0204,0.1697,0
18879913,1,-0.0041,-0.0039,0.0001,-0.0067,-0.0029,0.158,0
18880080,1,-0.0041,-0.0039,0.0001,0.0068,0.0054,0.1595,0
18880247,1,-0.0041,-0.0039,0.0001,0.0147,0.0002,0.1629,0
18880413,1,-0.0041,-0.0039,0.0001,0.0054,0.0027,0.1721,0
18880580,1,-0.0041,-0.0039,0.0001,-0.0111,-0.0126,0.1637,0
18880747,1,-0.0041,-0.0039,0.0001,0.0012,-0.0063,0.1601,0
18880913,1,-0.0041,-0.0039,0.0001,-0.0075,-0.0109,0.1623,0
18881080,1,-0.0041,-0.0039,0.0001,0.0001,-0.0016,0.1868,0
18881247,1,-0.0041,-0.0039,0.0001,0.0101,-0.01,0.1833,0
18881413,1,-0.0041,-0.0039,0.0001,0,0.0016,0.1656,0
18881580,1,-0.0041,-0.0039,0.0001,0.0107,-0.0089,0.1633,0
18881747,1,-0.0041,-0.0039,0.0001,0,0.0028,0.1609,0
18881913,1,-0.0042,-0.0039,0.0001,0.0124,-0.0023,0.1681,0
18882080,1,-0.0042,-0.0039,0.0001,-0.0044,-0.0041,0.1763,0
18882247,1,-0.0042,-0.004,0.0001,-0.0069,0.0061,0.1762,0
18882413,1,-0.0042,-0.004,0.0001,-0.004,0.0057,0.1595,0
18882580,1,-0.0042,-0.004,0.0001,0.0157,-0.0112,0.1671,0
18882747,1,-0.0042,-0.004,0.0001,-0.0089,-0.0149,0.156,0
18882913,1,-0.0042,-0.004,0.0001,-0.0067,0.0002,0.1893,0
18883080,1,-0.0042,-0.004,0.0001,0.0092,-0.011,0.1745,0
18883247,1,-0.0042,-0.004,0.0001,-0.0011,0.0197,0.1752,0
18883413,1,-0.0042,-0.004,0.0001,-0.0032,0.0031,0.1725,0
18883580,1,-0.0042,-0.004,0.0001,-0.001,-0.0059,0.1659,0
18883747,1,-0.0042,-0.0039,0.0001,0.0005,0.0023,0.1944,0
18883913,1,-0.0042,-0.0039,0.0001,0.0045,-0.0059,0.1697,0
18884080,1,-0.0042,-0.0039,0.0001,0.0028,-0.0165,0.1762,0
18884247,1,-0.0042,-0.0039,0.0001,-0.0051,0.0084,0.1764,0
18884413,1,-0.0042,-0.0039,0.0001,0.0051,0.0006,0.1659,0
18884580,1,-0.0042,-0.0039,0.0001,0.0095,0.0067,0.1685,0
18884747,1,-0.0042,-0.0039,0.0001,0.0027,-0.0115,0.1726,0
18884913,1,-0.0042,-0.0039,0.0001,-0.0068,-0.0076,0.1695,0
18885080,1,-0.0042,-0.0039,0.0001,-0.0043,-0.0163,0.1547,0
18885247,1,-0.0042,-0.0039,0.0001,-0.0036,-0.0021,0.1679,0
18885413,1,-0.0042,-0.0039,0.0001,-0.0042,-0.0034,0.1594,0
18885580,1,-0.0042,-0.0039,0.0001,-0.0065,-0.0006,0.1714,0
18885747,1,-0.0042,-0.0039,0.0001,-0.0052,0.0017,0.1775,0
18885913,1,-0.0042,-0.0039,0.0001,0.0021,0.0039,0.1742,0
18886080,1,-0.0042,-0.0039,0.0001,-0.0077,-0.0056,0.1692,0
18886247,1,-0.0042,-0.0039,0.0001,-0.0001,-0.0104,0.1829,0
18886413,1,-0.0042,-0.0039,0.0001,-0.0004,0.0018,0.1746,0
18886580,1,-0.0042,-0.0039,0.0001,-0.0101,-0.0017,0.1713,0
18886747,1,-0.0041,-0.0039,0.0001,0.0122,-0.0044,0.1815,0
18886913,1,-0.0041,-0.0039,0.0001,0.0064,-0.0096,0.178,0
18887080,1,-0.0041,-0.0039,0.0001,-0.0046,-0.0104,0.1756,0
18887247,1,-0.0041,-0.0039,0.0001,0.0026,-0.0159,0.1696,0
18887413,1,-0.0041,-0.0039,0.0001,-0.0039,-0.0051,0.162,0
18887580,1,-0.0041,-0.0039,0.0002,0.0008,0.0076,0.1591,0
18887747,1,-0.0041,-0.0039,0.0001,0.0049,0.0166,0.1606,0
18887913,1,-0.0041,-0.0039,0.0002,0.0107,-0.0089,0.1579,0
18888080,1,-0.0041,-0.0039,0.0002,-0.0132,0,0.1638,0
18888247,1,-0.0041,-0.0039,0.0002,-0.001,-0.0092,0.1708,0
18888413,1,-0.0041,-0.0039,0.0002,-0.0086,0.0042,0.1561,0
18888580,1,-0.0041,-0.0039,0.0002,-0.0021,0.0013,0.1768,0
18888747,1,-0.0041,-0.0039,0.0002,-0.0031,0.013,0.1799,0
18888913,1,-0.0041,-0.0039,0.0002,-0.0013,-0.0085,0.1593,0
18889080,1,-0.0041,-0.0039,0.0002,-0.001,-0.0018,0.1744,0
18889247,1,-0.0041,-0.0039,0.0002,0.0092,-0.0071,0.1707,0
18889413,1,-0.0041,-0.0039,0.0002,0.0176,-0.0093,0.1716,0
18889580,1,-0.0041,-0.0039,0.0002,-0.007,-0.0052,0.1765,0
18889747,1,-0.0041,-0.0039,0.0002,-0.0158,-0.0074,0.1605,0
18889913,1,-0.0041,-0.0039,0.0002,-0.0109,-0.0021,0.1818,0
18890080,1,-0.0041,-0.0039,0.0002,-0.0109,-0.0096,0.1628,0
18890247,1,-0.0041,-0.0039,0.0002,0.0103,0.0067,0.1693,0
18890413,1,-0.0041,-0.0039,0.0002,-0.0016,-0.0136,0.1712,0
18890580,1,-0.0041,-0.0039,0.0002,-0.0045,-0.0023,0.1702,0
18890747,1,-0.0041,-0.0039,0.0002,-0.0091,-0.0015,0.156,0
18890913,1,-0.0041,-0.0039,0.0002,-0.0176,-0.0012,0.1711,0
18891080,1,-0.0041,-0.0039,0.0002,0.0104,-0.0082,0.1682,0
18891247,1,-0.0041,-0.0039,0.0002,-0.0046,-0.0149,0.1712,0
18891413,1,-0.0041,-0.0039,0.0002,-0.0135,-0.0014,0.1743,0
18891580,1,-0.0041,-0.0039,0.0002,-0.0094,0.0043,0.171,0
18891747,1,-0.0041,-0.0039,0.0002,-0.0229,-0.0077,0.1609,0
18891913,1,-0.0041,-0.0039,0.0002,-0.0025,-0.0057,0.1705,0
18892080,1,-0.0041,-0.0039,0.0002,0.0065,-0.0104,0.1694,0
18892247,1,-0.0041,-0.0039,0.0002,0.002,-0.0111,0.1762,0
18892413,1,-0.0041,-0.0039,0.0002,-0.008,-0.0145,0.1806,0
18892580,1,-0.0041,-0.0039,0.0002,0.0072,-0.0036,0.1719,0
18892747,1,-0.0041,-0.0039,0.0003,0.0055,0.0012,0.1762,0
18892913,1,-0.0041,-0.0039,0.0002,-0.0121,-0.0077,0.1626,0
18893080,1,-0.0041,-0.0039,0.0002,0.0062,-0.0135,0.1728,0
18893247,1,-0.0041,-0.0039,0.0002,-0.001,-0.0146,0.1617,0
18893413,1,-0.0041,-0.0039,0.0002,0.0108,-0.0069,0.1872,0
18893580,1,-0.0041,-0.0039,0.0003,0.0083,-0.0023,0.158,0
18893747,1,-0.0041,-0.0039,0.0003,0.0015,-0.0046,0.1605,0
18893913,1,-0.0041,-0.0039,0.0003,-0.0039,-0.0045,0.1689,0
18894080,1,-0.0041,-0.0039,0.0003,-0.0003,-0.0054,0.1694,0
18894247,1,-0.0041,-0.004,0.0003,0.0013,-0.0097,0.1669,0
18894414,1,-0.0041,-0.0039,0.0003,-0.0062,0.0061,0.1774,0
18894580,1,-0.0041,-0.0039,0.0003,0.0039,0.0005,0.1724,0
18894747,1,-0.0041,-0.0039,0.0003,0.0044,-0.009,0.1677,0
18894914,1,-0.0041,-0.0039,0.0003,0.0141,-0.0198,0.1692,0
18895080,1,-0.0041,-0.0039,0.0003,0.003,-0.0068,0.1565,0
18895247,1,-0.0041,-0.004,0.0003,0.0024,-0.0098,0.1784,0
18895414,1,-0.0041,-0.004,0.0003,0.0139,-0.0147,0.165,0
18895580,1,-0.0041,-0.004,0.0003,-0.0182,-0.0162,0.1565,0
18895747,1,-0.004,-0.004,0.0003,-0.0097,-0.0023,0.174,0
18895914,1,-0.004,-0.004,0.0003,0.0033,-0.0058,0.1711,0
18896080,1,-0.004,-0.004,0.0003,-0.0011,-0.0075,0.162,0
18896247,1,-0.004,-0.004,0.0003,-0.0065,-0.0007,0.1644,0
18896414,1,-0.004,-0.004,0.0003,-0.0058,-0.0156,0.1709,0
18896580,1,-0.004,-0.004,0.0003,-0.0011,0.0023,0.1742,0
18896747,1,-0.004,-0.0039,0.0003,-0.0067,-0.0046,0.1851,0
18896914,1,-0.004,-0.004,0.0003,0.0141,-0.0136,0.1592,0
18897080,1,-0.004,-0.004,0.0003,-0.0024,0.0038,0.1739,0
18897247,1,-0.004,-0.004,0.0003,0.0091,0.0003,0.1596,0
18897414,1,-0.004,-0.004,0.0003,-0.0077,-0.0143,0.1716,0
18897580,1,-0.004,-0.004,0.0003,0.004,-0.0025,0.1562,0
18897747,1,-0.004,-0.004,0.0003,-0.0025,-0.0026,0.1695,0
18897914,1,-0.004,-0.004,0.0003,-0.0064,0.0019,0.161,0
18898080,1,-0.004,-0.004,0.0003,-0.007,-0.0014,0.1671,0
18898247,1,-0.004,-0.004,0.0003,-0.0008,-0.003,0.1611,0
18898414,1,-0.004,-0.004,0.0003,0.0056,-0.0076,0.1852,0
18898580,1,-0.004,-0.004,0.0003,0.016,-0.0059,0.1705,0
18898747,1,-0.004,-0.004,0.0003,-0.012,0.0159,0.1799,0
18898914,1,-0.004,-0.004,0.0003,0.0091,0.0045,0.1635,0
18899080,1,-0.004,-0.0039,0.0003,0.0028,-0.0011,0.1611,0
18899247,1,-0.004,-0.004,0.0003,0.0098,-0.0011,0.1689,0
18899414,1,-0.004,-0.004,0.0003,0.0063,-0.0065,0.1705,0
18899580,1,-0.004,-0.004,0.0003,-0.009,-0.0078,0.1605,0
18899747,1,-0.004,-0.004,0.0003,0.0166,0.0033,0.1725,0
18899914,1,-0.004,-0.004,0.0003,0.0069,-0.0005,0.164,0
18900080,1,-0.004,-0.004,0.0003,0.0177,0.0002,0.1646,0
18900247,1,-0.004,-0.004,0.0003,-0.001,-0.0093,0.1713,0
18900414,1,-0.004,-0.004,0.0003,-0.005,-0.0097,0.1613,0
18900580,1,-0.004,-0.004,0.0003,0.0006,0.0016,0.1745,0
18900747,1,-0.004,-0.004,0.0003,-0.0013,-0.0095,0.1686,0
18900914,1,-0.004,-0.004,0.0003,0.0044,-0.0003,0.1789,0
18901080,1,-0.004,-0.004,0.0003,-0.0026,0.0011,0.1703,0
18901247,1,-0.004,-0.004,0.0003,0.0012,-0.0067,0.1606,0
18901414,1,-0.004,-0.004,0.0003,0.0076,0.0007,0.1677,0
18901580,1,-0.004,-0.004,0.0003,-0.0007,-0.0078,0.1764,0
18901747,1,-0.004,-0.004,0.0003,-0.0033,-0.0094,0.1586,0
18901914,1,-0.0041,-0.0039,0.0003,-0.0109,-0.0045,0.1673,0
18902080,1,-0.0041,-0.0039,0.0003,-0.0143,-0.0047,0.1776,0
18902247,1,-0.0041,-0.0039,0.0003,-0.0085,0.0031,0.1525,0
18902414,1,-0.0041,-0.004,0.0003,-0.0047,-0.0001,0.1672,0
18902580,1,-0.0041,-0.0039,0.0003,-0.0007,-0.008,0.1679,0
18902747,1,-0.0041,-0.0039,0.0003,-0.0014,-0.012,0.165,0
18902914,1,-0.0041,-0.0039,0.0003,0.0055,0.0006,0.1781,0
18903080,1,-0.0041,-0.0039,0.0003,-0.0026,-0.0079,0.1774,0
18903247,1,-0.0041,-0.0039,0.0003,-0.0056,-0.0012,0.1766,0
18903414,1,-0.0041,-0.0039,0.0003,-0.007,-0.015,0.1689,0
18903580,1,-0.0041,-0.0039,0.0003,-0.0027,-0.0014,0.1687,0
18903747,1,-0.0041,-0.0039,0.0003,-0.0115,-0.003,0.1634,0
18903914,1,-0.0041,-0.0039,0.0003,0.0146,-0.0066,0.1764,0
18904080,1,-0.0041,-0.0039,0.0003,0.0013,-0.0049,0.1666,0
18904247,1,-0.0041,-0.0039,0.0003,0.0012,-0.0066,0.1722,0
18904414,1,-0.0041,-0.0039,0.0003,0.0015,-0.0036,0.1739,0
18904580,1,-0.0041,-0.0039,0.0003,-0.0029,-0.0107,0.1661,0
18904747,1,-0.0041,-0.0039,0.0003,-0.0126,0.0058,0.1826,0
18904914,1,-0.0041,-0.0039,0.0003,0.0242,-0.0055,0.1661,0
18905080,1,-0.0041,-0.0039,0.0003,0.0061,-0.0077,0.1655,0
18905247,1,-0.0041,-0.0039,0.0004,0.0055,0.0023,0.1642,0
18905414,1,-0.0041,-0.0039,0.0004,-0.0088,-0.0007,0.1739,0
18905580,1,-0.0041,-0.0039,0.0004,-0.0007,0.0038,0.1705,0
18905747,1,-0.0041,-0.0039,0.0004,0.0016,0.0077,0.1611,0
18905914,1,-0.0041,-0.0039,0.0004,-0.0046,0.0033,0.1712,0
18906080,1,-0.0041,-0.0039,0.0004,0.0038,-0.0053,0.1653,0
18906247,1,-0.0041,-0.0039,0.0004,0.0026,0.0059,0.1627,0
18906414,1,-0.0041,-0.004,0.0004,0.0127,0.0065,0.1764,0
18906580,1,-0.0041,-0.004,0.0004,0.0092,-0.0012,0.1697,0
18906747,1,-0.0041,-0.004,0.0004,-0.0023,-0.0034,0.1745,0
18906914,1,-0.0041,-0.004,0.0004,-0.012,-0.0084,0.1603,0
18907080,1,-0.0041,-0.004,0.0004,0.0041,-0.0091,0.1699,0
18907247,1,-0.0041,-0.0039,0.0004,-0.0105,0.0031,0.1471,0
18907414,1,-0.0041,-0.0039,0.0004,0.0058,0.0038,0.1718,0
18907580,1,-0.0041,-0.0039,0.0004,-0.0051,-0.0084,0.1816,0
18907747,1,-0.0041,-0.004,0.0004,-0.0032,-0.0076,0.168,0
18907914,1,-0.0041,-0.0039,0.0004,0.0029,0.0061,0.1647,0
18908080,1,-0.0041,-0.0039,0.0004,0.0078,-0.0042,0.1759,0
18908247,1,-0.0041,-0.0039,0.0004,-0.0037,0.0042,0.1868,0
18908414,1,-0.0041,-0.0039,0.0004,0.0106,-0.008,0.1739,0
18908580,1,-0.0041,-0.0039,0.0003,-0.0067,-0.0124,0.1697,0
18908747,1,-0.0041,-0.0039,0.0004,0.0016,-0.0062,0.1802,0
18908914,1,-0.0041,-0.0039,0.0004,-0.007,0.0017,0.1818,0
18909080,1,-0.0041,-0.0039,0.0004,-0.0027,-0.0084,0.1644,0
18909247,1,-0.0041,-0.004,0.0004,-0.0025,-0.0018,0.1676,0
18909414,1,-0.0041,-0.004,0.0004,-0.0059,-0.0106,0.1561,0
18909580,1,-0.0041,-0.004,0.0004,0.0083,0.004,0.1758,0
18909747,1,-0.0041,-0.004,0.0004,-0.0021,-0.0022,0.1668,0
18909914,1,-0.0041,-0.004,0.0004,0.0014,-0.0079,0.1655,0
18910080,1,-0.0041,-0.004,0.0004,0.0042,-0.0171,0.156,0
18910247,1,-0.0041,-0.004,0.0004,-0.0122,0.0038,0.1787,0
18910414,1,-0.0041,-0.004,0.0004,0.0067,0.0042,0.1755,0
18910580,1,-0.0041,-0.004,0.0004,0.0015,0.0004,0.1653,0
18910747,1,-0.0041,-0.004,0.0004,0.0054,-0.0089,0.175,0
18910914,1,-0.0041,-0.004,0.0004,0.0032,-0.0018,0.1725,0
18911081,1,-0.0041,-0.004,0.0004,0.008,0.0016,0.1764,0
18911247,1,-0.0041,-0.004,0.0004,-0.0023,0.0039,0.1853,0
18911414,1,-0.0041,-0.0039,0.0003,0.0046,0.0084,0.1698,0
18911581,1,-0.0041,-0.004,0.0004,0.0006,-0.0083,0.1677,0
18911747,1,-0.0041,-0.004,0.0003,0.0045,0.0034,0.1663,0
18911914,1,-0.0041,-0.0039,0.0004,-0.0063,0.0002,0.1703,0
18912081,1,-0.0041,-0.0039,0.0003,0.002,-0.0157,0.1635,0
18912247,1,-0.0041,-0.0039,0.0003,-0.0036,-0.0078,0.1682,0
18912414,1,-0.0041,-0.0039,0.0003,-0.0121,0.0004,0.1504,0
18912581,1,-0.0041,-0.0039,0.0003,0.0018,-0.0144,0.1677,0
18912747,1,-0.0041,-0.0039,0.0003,-0.0003,-0.0096,0.1627,0
18912914,1,-0.0041,-0.0039,0.0003,0.0079,0.0006,0.1658,0
18913081,1,-0.0041,-0.0039,0.0003,-0.0011,0.0031,0.1727,0
18913247,1,-0.0041,-0.0039,0.0003,0.0019,-0.0079,0.1704,0
18913414,1,-0.0041,-0.0039,0.0003,0.0044,-0.0015,0.1733,0
18913581,1,-0.0041,-0.0039,0.0003,0.0033,0.0004,0.1635,0
18913747,1,-0.0041,-0.0039,0.0003,-0.0022,-0.0073,0.1686,0
18913914,1,-0.0041,-0.0039,0.0003,-0.001,-0.0022,0.1749,0
18914081,1,-0.0041,-0.0039,0.0003,-0.0088,-0.0098,0.1707,0
18914247,1,-0.0041,-0.0039,0.0003,0.0043,-0.0007,0.1695,0
18914414,1,-0.0041,-0.0039,0.0003,-0.0022,0.0177,0.1657,0
18914581,1,-0.0041,-0.0039,0.0003,0.0056,0.0021,0.1808,0
18914747,1,-0.0041,-0.0039,0.0003,0.002,-0.0028,0.1726,0
18914914,1,-0.0041,-0.0039,0.0003,-0.0031,0.0041,0.1726,0
18915081,1,-0.0041,-0.0039,0.0003,0.0005,-0.0014,0.1598,0
18915247,1,-0.0041,-0.0039,0.0003,-0.0011,-0.0113,0.1722,0
18915414,1,-0.0041,-0.0039,0.0003,0.0147,0.0088,0.1687,0
18915581,1,-0.0041,-0.0039,0.0003,-0.0183,0.006,0.1584,0
18915747,1,-0.0041,-0.0039,0.0003,-0.0008,-0.0016,0.173,0
18915914,1,-0.0041,-0.0039,0.0003,-0.0052,-0.0067,0.1728,0
18916081,1,-0.0041,-0.0039,0.0003,0.0047,-0.0028,0.1708,0
18916247,1,-0.0041,-0.0039,0.0003,-0.013,-0.0087,0.1684,0
18916414,1,-0.0041,-0.0039,0.0003,-0.0029,-0.0089,0.1663,0
18916581,1,-0.0041,-0.0039,0.0003,0.0025,0.0026,0.1715,0
18916747,1,-0.0041,-0.0039,0.0003,0.0059,0.0003,0.1609,0
18916914,1,-0.0041,-0.0039,0.0003,0.0115,0.0047,0.1649,0
18917081,1,-0.0041,-0.0039,0.0003,-0.0048,-0.0026,0.1641,0
18917247,1,-0.0041,-0.0039,0.0003,-0.0076,-0.0114,0.1712,0
18917414,1,-0.0041,-0.0039,0.0003,0.0023,-0.0038,0.1777,0
18917581,1,-0.0041,-0.0039,0.0003,0.0033,0.0061,0.1775,0
18917747,1,-0.0041,-0.0039,0.0003,-0.002,-0.0071,0.1779,0
18917914,1,-0.0041,-0.0039,0.0003,0.0005,0.0049,0.1725,0
18918081,1,-0.0041,-0.0039,0.0003,0.0018,-0.0074,0.1693,0
18918247,1,-0.0041,-0.0039,0.0003,-0.0077,-0.0083,0.1604,0
18918414,1,-0.0041,-0.0039,0.0003,0.006,-0.0081,0.1662,0
18918581,1,-0.0041,-0.0039,0.0003,-0.0037,-0.0049,0.1796,0
18918747,1,-0.0041,-0.0039,0.0003,-0.0034,-0.0108,0.1743,0
18918914,1,-0.0041,-0.0039,0.0003,0.0025,-0.0162,0.169,0
18919081,1,-0.0041,-0.0039,0.0003,0.0117,-0.0137,0.1581,0
18919247,1,-0.0041,-0.0039,0.0003,0.0128,0.003,0.1712,0
18919414,1,-0.0041,-0.0039,0.0003,0.004,-0.002,0.1626,0
18919581,1,-0.0041,-0.0039,0.0003,0.0101,-0.005,0.1763,0
18919747,1,-0.0041,-0.0039,0.0003,0.0053,-0.0087,0.1719,0
18919914,1,-0.0041,-0.0039,0.0003,0.0039,-0.0066,0.175,0
18920081,1,-0.0041,-0.0039,0.0003,-0.0014,-0.0053,0.165,0
18920247,1,-0.0041,-0.0039,0.0003,0.0019,-0.0099,0.1673,0
18920414,1,-0.0041,-0.0039,0.0003,-0.0036,0.0034,0.1561,0
18920581,1,-0.0041,-0.0039,0.0003,0.0038,-0.0082,0.1799,0
18920747,1,-0.0041,-0.0039,0.0003,0.0021,-0.0014,0.1607,0
18920914,1,-0.0041,-0.0039,0.0003,0.0036,-0.0101,0.1701,0
18921081,1,-0.0041,-0.0039,0.0003,0.0136,0.0007,0.1672,0
18921247,1,-0.0041,-0.0039,0.0003,0.0066,-0.0046,0.1711,0
18921414,1,-0.0041,-0.0039,0.0003,0.0005,-0.0164,0.1578,0
18921581,1,-0.0041,-0.0039,0.0003,0.0074,0.0057,0.1594,0
18921747,1,-0.0041,-0.0039,0.0003,0.004,0.0016,0.1709,0
18921914,1,-0.0041,-0.004,0.0003,-0.012,-0.012,0.1745,0
18922081,1,-0.0041,-0.004,0.0003,0.0006,-0.0148,0.1726,0
18922247,1,-0.0041,-0.004,0.0003,0.0136,-0.0101,0.1655,0
18922414,1,-0.0041,-0.004,0.0003,0.0006,-0.0221,0.1723,0
18922581,1,-0.0041,-0.0039,0.0003,-0.0013,0.0037,0.1575,0
18922747,1,-0.0041,-0.0039,0.0003,0.0043,-0.0072,0.1693,0
18922914,1,-0.0041,-0.004,0.0003,0.0062,0.0002,0.1751,0
18923081,1,-0.0041,-0.004,0.0003,-0.0024,-0.0087,0.1758,0
18923247,1,-0.0041,-0.004,0.0003,0.0126,-0.0059,0.176,0
18923414,1,-0.0041,-0.004,0.0003,-0.0039,0.0008,0.1601,0
18923581,1,-0.0041,-0.004,0.0003,0.0068,-0.0014,0.1733,0
18923747,1,-0.0041,-0.004,0.0003,-0.0004,-0.0044,0.1679,0
18923914,1,-0.0041,-0.004,0.0003,0.0024,0.0036,0.1675,0
18924081,1,-0.0041,-0.004,0.0003,0.0041,-0.0037,0.1562,0
18924247,1,-0.0041,-0.004,0.0003,-0.0102,-0.0031,0.1846,0
18924414,1,-0.0041,-0.004,0.0003,0.0035,-0.001,0.1676,0
18924581,1,-0.0041,-0.004,0.0003,0.0039,-0.013,0.1718,0
18924747,1,-0.0041,-0.004,0.0003,0.0012,0.0011,0.1765,0
18924914,1,-0.0041,-0.004,0.0003,0.0016,-0.0087,0.1721,0
18925081,1,-0.0041,-0.004,0.0003,0.0014,-0.0092,0.165,0
18925247,1,-0.0041,-0.004,0.0003,-0.0016,-0.0055,0.1618,0
18925414,1,-0.0041,-0.004,0.0003,0.0046,-0.005,0.1765,0
18925581,1,-0.0041,-0.004,0.0003,-0.0068,0.0088,0.1712,0
18925747,1,-0.0041,-0.004,0.0003,-0.0007,-0.015,0.1618,0
18925914,1,-0.0041,-0.004,0.0003,0.0167,-0.0099,0.1682,0
18926081,1,-0.0041,-0.004,0.0003,-0.0012,-0.0014,0.1594,0
18926247,1,-0.0041,-0.004,0.0003,0.0004,-0.0038,0.1443,0
18926414,1,-0.0041,-0.004,0.0003,-0.0043,-0.0104,0.1734,0
18926581,1,-0.0041,-0.004,0.0003,0.0014,-0.0131,0.1666,0
18926747,1,-0.0041,-0.004,0.0003,0.0104,-0.0049,0.1671,0
18926914,1,-0.0041,-0.004,0.0003,0.0054,-0.004,0.1607,0
18927081,1,-0.0041,-0.004,0.0003,0.0106,-0.0038,0.1745,0
18927247,1,-0.0041,-0.004,0.0003,0.0093,-0.003,0.1588,0
18927414,1,-0.0041,-0.004,0.0003,-0.0041,-0.0005,0.1615,0
18927581,1,-0.0041,-0.004,0.0003,0.0089,-0.0016,0.1757,0
18927748,1,-0.0041,-0.004,0.0003,-0.0056,-0.0073,0.1642,0
18927914,1,-0.0041,-0.004,0.0003,0.0086,0.0024,0.1601,0
18928081,1,-0.0041,-0.004,0.0003,-0.004,0.0139,0.1774,0
18928248,1,-0.0041,-0.004,0.0003,-0.0163,-0.0025,0.1749,0
18928414,1,-0.0041,-0.004,0.0003,-0.0107,-0.0043,0.1708,0
18928581,1,-0.0041,-0.004,0.0003,0.0076,0.0047,0.1522,0
18928748,1,-0.0041,-0.004,0.0003,0.0013,-0.0037,0.1759,0
18928914,1,-0.0041,-0.004,0.0003,-0.0047,-0.0011,0.1714,0
18929081,1,-0.0041,-0.004,0.0003,0.0018,0.0168,0.1711,0
18929248,1,-0.0041,-0.004,0.0003,-0.005,0.0016,0.1206,0
18929414,1,-0.0041,-0.004,0.0003,-0.0113,-0.0028,0.2488,0
18929581,1,-0.0041,-0.004,0.0003,-0.0011,0.0048,0.1539,0
18929748,1,-0.0041,-0.004,0.0003,0.0136,-0.0173,0.1235,0
18929914,1,-0.0041,-0.004,0.0003,-0.0075,0.004,0.2729,0
18930081,1,-0.0041,-0.004,0.0003,0.01,-0.0014,0.1189,0
18930248,1,-0.0041,-0.004,0.0003,-0.0093,-0.0098,0.1681,0
18930414,1,-0.0041,-0.004,0.0003,-0.0039,-0.0097,0.2178,0
18930581,1,-0.0041,-0.004,0.0003,-0.004,0.003,0.0961,0
18930748,1,-0.0041,-0.004,0.0003,-0.0165,-0.003,0.205,0
18930914,1,-0.0041,-0.004,0.0003,0.0076,0.0075,0.1888,0
18931081,1,-0.0041,-0.004,0.0003,0.015,0.0092,0.1237,0
18931248,1,-0.0041,-0.004,0.0003,-0.0114,-0.0204,0.2351,0
18931414,1,-0.0041,-0.004,0.0003,-0.0093,-0.0086,0.137,0
18931581,1,-0.0041,-0.004,0.0003,-0.0099,0.0181,0.1409,0
18931748,1,-0.0041,-0.004,0.0003,-0.0037,0,0.2032,0
18931914,1,-0.0041,-0.004,0.0003,0.0021,-0.0121,0.1272,0
18932081,1,-0.0042,-0.004,0.0003,-0.0029,-0.0016,0.166,0
18932248,1,-0.0042,-0.004,0.0003,-0.0003,-0.0264,0.251,0
18932414,1,-0.0041,-0.004,0.0003,0.0147,-0.0161,0.1032,0
18932581,1,-0.0041,-0.004,0.0003,-0.0152,-0.0005,0.1973,0
18932748,1,-0.0041,-0.004,0.0003,-0.0093,0.0169,0.1637,0
18932914,1,-0.0041,-0.004,0.0003,-0.0118,0.0051,0.0997,0
18933081,1,-0.0041,-0.004,0.0003,-0.0012,0.0152,0.2189,0
18933248,1,-0.0042,-0.004,0.0003,0.0134,-0.0063,0.1834,0
18933414,1,-0.0041,-0.0041,0.0003,0.0197,-0.0499,0.1246,0
18933581,1,-0.0041,-0.004,0.0003,-0.0037,0.0377,0.2931,0
18933748,1,-0.0041,-0.004,0.0003,0.0163,0.0191,0.0835,0
18933914,1,-0.0041,-0.004,0.0003,-0.0266,-0.028,0.1902,0
18934081,1,-0.0042,-0.004,0.0003,-0.0281,0.0259,0.2035,0
18934248,1,-0.0042,-0.004,0.0003,-0.0089,0.0238,0.0754,0
18934414,1,-0.0041,-0.0041,0.0003,0.0161,-0.0283,0.2715,0
18934581,1,-0.0042,-0.004,0.0003,0.0373,-0.0104,0.182,0
18934748,1,-0.0042,-0.004,0.0003,-0.008,0.0037,0.1319,0
18934914,1,-0.0042,-0.004,0.0003,-0.0432,0.022,0.2236,0
18935081,1,-0.0042,-0.004,0.0003,-0.0161,0.0019,0.0753,0
18935248,1,-0.0042,-0.004,0.0003,-0.033,-0.0353,0.152,0
18935414,1,-0.0042,-0.0041,0.0003,-0.0203,-0.0278,0.201,0
18935581,1,-0.0042,-0.0041,0.0003,0.0086,-0.0285,0.127,0
18935748,1,-0.0042,-0.0041,0.0004,0.0239,0.013,0.2599,0
18935914,1,-0.0042,-0.0041,0.0004,0.0168,0.0705,0.1752,0
18936081,1,-0.0042,-0.0041,0.0004,0.024,0.0708,0.1727,0
18936248,1,-0.0042,-0.0041,0.0004,-0.0007,0.0255,0.2205,0
18936414,1,-0.0042,-0.0041,0.0004,-0.0317,-0.0431,0.0881,0
18936581,1,-0.0042,-0.0041,0.0004,-0.0558,-0.0532,0.1519,0
18936748,1,-0.0042,-0.0041,0.0003,-0.0224,-0.0715,0.1773,0
18936914,1,-0.0042,-0.0041,0.0004,0.0398,0.0114,0.192,0
18937081,1,-0.0042,-0.0041,0.0004,0.0354,0.0684,0.2753,0
18937248,1,-0.0042,-0.0041,0.0004,0.041,0.0646,0.2038,0
18937414,1,-0.0042,-0.0041,0.0004,-0.007,0.022,0.1163,0
18937581,1,-0.0042,-0.0041,0.0003,-0.0728,-0.0572,0.1384,0
18937748,1,-0.0042,-0.0041,0.0004,-0.0769,-0.1156,0.1108,0
18937914,1,-0.0042,-0.0041,0.0004,-0.0342,-0.0458,0.1128,0
18938081,1,-0.0042,-0.0041,0.0004,0.0345,0.0689,0.2311,0
18938248,1,-0.0042,-0.0041,0.0004,0.0667,0.104,0.2593,0
18938414,1,-0.0042,-0.0041,0.0004,0.0913,0.0936,0.1899,0
18938581,1,-0.0042,-0.0041,0.0003,0.0065,-0.009,0.2055,0
18938748,1,-0.0042,-0.0041,0.0003,-0.0796,-0.1008,0.1024,0
18938914,1,-0.0042,-0.0041,0.0003,-0.0812,-0.1323,0.087,0
18939081,1,-0.0042,-0.0041,0.0004,-0.0619,-0.0919,0.1016,0
18939248,1,-0.0042,-0.0041,0.0004,0.0021,0.1194,0.2281,0
18939414,1,-0.0042,-0.0041,0.0004,0.0798,0.1322,0.2367,0
18939581,1,-0.0042,-0.0041,0.0004,0.0936,0.0574,0.2893,0
18939748,1,-0.0042,-0.0041,0.0003,0.0502,-0.013,0.353,0
18939914,1,-0.0042,-0.0041,0.0003,0.0026,-0.1578,-0.023,0
18940081,1,-0.0042,-0.0041,0.0003,-0.1365,-0.121,0.1494,0
18940248,1,-0.0042,-0.0041,0.0004,-0.1114,0.023,0.1208,0
18940414,1,-0.0042,-0.0041,0.0004,0.0031,0.0683,0.0415,0
18940581,1,-0.0042,-0.0041,0.0004,0.0665,0.0887,0.4583,0
18940748,1,-0.0042,-0.0041,0.0004,0.1188,0.044,0.1725,0
18940914,1,-0.0042,-0.0041,0.0003,0.0684,-0.0758,0.1672,0
18941081,1,-0.0042,-0.0041,0.0003,-0.0355,-0.1358,0.2895,0
18941248,1,-0.0041,-0.004,0.0003,-0.103,-0.0336,-0.063,0
18941414,1,-0.0041,-0.004,0.0003,-0.0997,0.027,0.1204,0
18941581,1,-0.0041,-0.0041,0.0003,-0.0182,0.0617,0.2273,0
18941748,1,-0.0042,-0.0041,0.0003,0.063,0.0646,0.0693,0
18941914,1,-0.0041,-0.004,0.0003,0.0642,-0.0135,0.3996,0
18942081,1,-0.0041,-0.004,0.0003,0.0525,-0.0681,0.1781,0
18942248,1,-0.0041,-0.004,0.0003,-0.0225,-0.0737,0.0601,0
18942414,1,-0.0041,-0.004,0.0003,-0.1121,0.006,0.2355,0
18942581,1,-0.0041,-0.004,0.0003,-0.0604,0.0526,0.0005,0
18942748,1,-0.0041,-0.004,0.0003,-0.0108,0.0293,0.1966,0
18942914,1,-0.0041,-0.004,0.0003,0.0603,0.0236,0.2751,0
18943081,1,-0.0041,-0.004,0.0003,0.0889,-0.0241,0.1403,0
18943248,1,-0.0041,-0.004,0.0003,0.0316,-0.0685,0.2827,0
18943414,1,-0.0041,-0.004,0.0003,-0.0408,-0.0205,0.1164,0
18943581,1,-0.0041,-0.004,0.0003,-0.0873,0.0222,0.0595,0
18943748,1,-0.0041,-0.004,0.0003,-0.067,0.007,0.2012,0
18943914,1,-0.0041,-0.004,0.0003,0.0221,-0.0134,0.1316,0
18944081,1,-0.0041,-0.0041,0.0003,0.0716,-0.0245,0.258,0
18944248,1,-0.0041,-0.0041,0.0003,0.0603,-0.0274,0.2734,0
18944415,1,-0.0041,-0.004,0.0003,0.0315,-0.0094,0.1195,0
18944581,1,-0.0041,-0.004,0.0003,-0.0571,0.0282,0.176,0
18944748,1,-0.0041,-0.004,0.0003,-0.0859,0.0394,0.0898,0
18944915,1,-0.0041,-0.004,0.0004,-0.0429,-0.0014,0.1023,0
18945081,1,-0.0041,-0.0041,0.0004,0.0304,-0.0509,0.234,0
18945248,1,-0.0041,-0.0041,0.0004,0.0875,-0.0353,0.1989,0
18945415,1,-0.0041,-0.004,0.0004,0.0589,-0.0127,0.2408,0
18945581,1,-0.0041,-0.004,0.0004,0.0013,0.0115,0.1916,0
18945748,1,-0.0041,-0.004,0.0004,-0.0741,0.041,0.0761,0
18945915,1,-0.0041,-0.004,0.0004,-0.0858,0.0319,0.1299,0
18946081,1,-0.0041,-0.004,0.0004,-0.0355,-0.0451,0.1118,0
18946248,1,-0.0041,-0.004,0.0004,0.0387,-0.0529,0.192,0
18946415,1,-0.0041,-0.004,0.0004,0.0511,-0.0208,0.2582,0
18946581,1,-0.0041,-0.004,0.0004,0.0749,0.004,0.1801,0
18946748,1,-0.0041,-0.004,0.0004,-0.0004,0.0405,0.1889,0
18946915,1,-0.0041,-0.004,0.0004,-0.0613,0.0357,0.1446,0
18947081,1,-0.0041,-0.004,0.0003,-0.0456,-0.0027,0.0874,0
18947248,1,-0.0041,-0.004,0.0004,-0.0394,-0.0558,0.1591,0
18947415,1,-0.0041,-0.004,0.0004,0.0253,-0.0347,0.1853,0
18947581,1,-0.0041,-0.004,0.0004,0.0488,0.0101,0.1878,0
18947748,1,-0.0041,-0.004,0.0004,0.0507,0.0363,0.2298,0
18947915,1,-0.0041,-0.004,0.0004,-0.0115,0.0441,0.1585,0
18948081,1,-0.0041,-0.004,0.0004,-0.0404,0.01,0.1357,0
18948248,1,-0.0041,-0.004,0.0004,-0.0489,-0.0421,0.1331,0
18948415,1,-0.0041,-0.004,0.0004,-0.0192,-0.0641,0.1412,0
18948581,1,-0.0041,-0.004,0.0004,0.0193,-0.01,0.188,0
18948748,1,-0.0041,-0.004,0.0004,0.0377,0.0195,0.2034,0
18948915,1,-0.0041,-0.004,0.0004,0.0478,0.0421,0.1793,0
18949081,1,-0.0041,-0.004,0.0004,0.0046,0.0295,0.1938,0
18949248,1,-0.0041,-0.004,0.0004,-0.0382,-0.0256,0.1329,0
18949415,1,-0.0041,-0.004,0.0004,-0.0373,-0.0629,0.1294,0
18949581,1,-0.0041,-0.004,0.0004,-0.0096,-0.0606,0.1588,0
18949748,1,-0.0041,-0.004,0.0004,0.0092,0.0079,0.17,0
18949915,1,-0.0041,-0.004,0.0004,0.0284,0.0587,0.191,0
18950081,1,-0.0041,-0.004,0.0004,0.0215,0.0497,0.2139,0
18950248,1,-0.0041,-0.004,0.0004,0.0059,0.0095,0.1606,0
18950415,1,-0.0041,-0.004,0.0004,-0.0344,-0.0469,0.1713,0
18950581,1,-0.0041,-0.004,0.0004,-0.0273,-0.0622,0.1379,0
18950748,1,-0.0041,-0.004,0.0004,-0.0071,-0.0242,0.1547,0
18950915,1,-0.0041,-0.004,0.0004,-0.0101,0.0139,0.1854,0
18951081,1,-0.0041,-0.004,0.0004,0.0293,0.0426,0.185,0
18951248,1,-0.0041,-0.004,0.0004,0.0149,0.0262,0.1936,0
18951415,1,-0.0041,-0.004,0.0004,0,-0.0101,0.172,0
18951581,1,-0.0041,-0.004,0.0004,-0.0307,-0.0492,0.1518,0
18951748,1,-0.0041,-0.004,0.0004,-0.0261,-0.0484,0.1512,0
18951915,1,-0.0041,-0.004,0.0004,-0.0224,0.0189,0.1517,0
18952081,1,-0.0041,-0.004,0.0004,0.0033,0.0382,0.177,0
18952248,1,-0.0041,-0.004,0.0004,0.0217,0.0217,0.2018,0
18952415,1,-0.0041,-0.004,0.0004,0.0205,0.0083,0.1732,0
18952581,1,-0.0041,-0.004,0.0004,0.0047,-0.0222,0.1672,0
18952748,1,-0.0041,-0.004,0.0004,-0.0303,-0.0459,0.1522,0
18952915,1,-0.0041,-0.004,0.0004,-0.0232,-0.0149,0.1461,0
18953081,1,-0.0041,-0.004,0.0004,-0.0083,0.0125,0.1644,0
18953248,1,-0.0041,-0.004,0.0004,0.02,0.0423,0.1659,0
18953415,1,-0.0041,-0.004,0.0004,0.0052,0.0311,0.1837,0
18953581,1,-0.0041,-0.004,0.0004,0.0025,-0.0031,0.197,0
18953748,1,-0.0041,-0.004,0.0004,0.0029,-0.0348,0.1622,0
18953915,1,-0.0041,-0.004,0.0004,-0.0301,-0.0362,0.1621,0
18954081,1,-0.0041,-0.004,0.0004,-0.0301,-0.0012,0.1516,0
18954248,1,-0.0041,-0.004,0.0004,-0.0013,0.0114,0.1602,0
18954415,1,-0.0041,-0.004,0.0004,0.0094,0.027,0.1859,0
18954581,1,-0.0041,-0.004,0.0004,0.0189,-0.0056,0.1866,0
18954748,1,-0.0041,-0.004,0.0004,0.0115,-0.0243,0.1917,0
18954915,1,-0.0041,-0.004,0.0004,-0.0195,-0.0358,0.1704,0
18955081,1,-0.0041,-0.004,0.0004,-0.0347,-0.0019,0.1467,0
18955248,1,-0.0041,-0.004,0.0004,-0.0259,0.0085,0.1399,0
18955415,1,-0.0041,-0.004,0.0004,-0.0141,0.0163,0.1494,0
18955581,1,-0.0041,-0.004,0.0004,0.0163,0.0079,0.1905,0
18955748,1,-0.0041,-0.004,0.0004,0.0286,-0.0108,0.1974,0
18955915,1,-0.0041,-0.004,0.0004,0.0127,-0.02,0.1867,0
18956081,1,-0.0041,-0.004,0.0004,-0.0052,-0.0127,0.1551,0
18956248,1,-0.0041,-0.004,0.0004,-0.0249,0.0122,0.1283,0
18956415,1,-0.0041,-0.004,0.0004,-0.0308,0.0239,0.1616,0
18956581,1,-0.0041,-0.004,0.0004,-0.0068,0.0153,0.166,0
18956748,1,-0.0041,-0.004,0.0004,0.0219,-0.0172,0.1922,0
18956915,1,-0.0041,-0.004,0.0004,0.0175,-0.0207,0.1924,0
18957081,1,-0.0041,-0.004,0.0004,0.0085,-0.0108,0.1803,0
18957248,1,-0.0041,-0.004,0.0004,-0.0024,-0.0109,0.1495,0
18957415,1,-0.0041,-0.004,0.0004,-0.0399,0.0075,0.1519,0
18957581,1,-0.0041,-0.004,0.0004,-0.0211,0.01,0.1562,0
18957748,1,-0.0041,-0.004,0.0004,0.0012,-0.0041,0.1705,0
18957915,1,-0.0041,-0.004,0.0004,0.0211,-0.0063,0.1807,0
18958081,1,-0.0041,-0.004,0.0004,0.0052,-0.0125,0.1892,0
18958248,1,-0.0041,-0.004,0.0004,-0.0073,0.0036,0.1686,0
18958415,1,-0.0041,-0.004,0.0004,-0.0275,-0.0011,0.1553,0
18958581,1,-0.0041,-0.004,0.0004,-0.0334,0.015,0.1492,0
18958748,1,-0.0041,-0.004,0.0004,-0.016,-0.0086,0.1514,0
18958915,1,-0.0041,-0.004,0.0004,-0.0077,-0.0143,0.1738,0
18959081,1,-0.0041,-0.004,0.0004,0.0142,-0.0172,0.1923,0
18959248,1,-0.0041,-0.004,0.0004,0.0121,0.0023,0.1737,0
18959415,1,-0.0041,-0.004,0.0004,-0.0056,0.0128,0.1708,0
18959581,1,-0.0041,-0.004,0.0004,-0.0113,0.0082,0.1406,0
18959748,1,-0.0041,-0.004,0.0004,-0.006,-0.0159,0.1599,0
18959915,1,-0.0041,-0.004,0.0004,-0.01,-0.0258,0.1451,0
18960081,1,-0.0041,-0.004,0.0004,-0.0164,-0.0132,0.1692,0
18960248,1,-0.0041,-0.004,0.0004,0.0001,-0.0197,0.1714,0
18960415,1,-0.0041,-0.004,0.0004,0.0002,0.0124,0.1698,0
18960581,1,-0.0041,-0.004,0.0004,0.0051,0.0061,0.1891,0
18960748,1,-0.0041,-0.004,0.0004,-0.0073,-0.0068,0.1681,0
18960915,1,-0.0041,-0.004,0.0004,-0.01,-0.0197,0.1583,0
18961082,1,-0.0042,-0.0041,0.0004,-0.0106,-0.0243,0.1675,0
18961248,1,-0.0041,-0.0041,0.0004,0.0143,-0.0186,0.1605,0
18961415,1,-0.0041,-0.0041,0.0004,0.0028,0.006,0.1838,0
18961582,1,-0.0041,-0.0041,0.0004,0.0054,0.001,0.1854,0
18961748,1,-0.0041,-0.0041,0.0005,-0.01,0.0202,0.1805,0
18961915,1,-0.0041,-0.004,0.0004,-0.0108,-0.0121,0.1552,0
18962082,1,-0.0041,-0.0041,0.0004,-0.0041,-0.0248,0.1614,0
18962248,1,-0.0041,-0.0041,0.0005,-0.0009,-0.0251,0.1661,0
18962415,1,-0.0041,-0.0041,0.0005,-0.0017,-0.0061,0.1768,0
18962582,1,-0.0041,-0.0041,0.0005,0.0024,0.0081,0.1935,0
18962748,1,-0.0041,-0.0041,0.0005,-0.0001,0.0126,0.1614,0
18962915,1,-0.0042,-0.0041,0.0005,-0.0224,-0.0047,0.1722,0
18963082,1,-0.0042,-0.0041,0.0005,-0.0119,-0.0202,0.1599,0
18963248,1,-0.0042,-0.0041,0.0005,-0.0113,-0.0188,0.1607,0
18963415,1,-0.0042,-0.0041,0.0005,-0.0063,-0.0101,0.1624,0
18963582,1,-0.0042,-0.0041,0.0005,0.004,0.008,0.1774,0
18963748,1,-0.0042,-0.0041,0.0005,0.0131,0.0171,0.1729,0
18963915,1,-0.0042,-0.0041,0.0005,0.0104,0.0119,0.1701,0
18964082,1,-0.0042,-0.0041,0.0005,-0.0017,0.0088,0.16,0
18964248,1,-0.0042,-0.0041,0.0005,-0.0183,-0.0183,0.1653,0
18964415,1,-0.0042,-0.0041,0.0005,-0.002,-0.0243,0.1739,0
18964582,1,-0.0042,-0.0041,0.0005,-0.0143,-0.0116,0.1667,0
18964748,1,-0.0042,-0.0041,0.0005,0.0049,0.0108,0.1737,0
18964915,1,-0.0042,-0.0041,0.0005,0.006,0.0141,0.1813,0
18965082,1,-0.0042,-0.0041,0.0005,-0.0109,-0.0025,0.176,0
18965248,1,-0.0042,-0.0041,0.0005,-0.014,-0.0167,0.167,0
18965415,1,-0.0042,-0.0041,0.0005,-0.0172,-0.0069,0.159,0
18965582,1,-0.0042,-0.0041,0.0005,-0.0043,-0.0109,0.1644,0
18965748,1,-0.0042,-0.0041,0.0005,-0.0196,0.0179,0.149,0
18965915,1,-0.0042,-0.0041,0.0005,-0.0004,0.0066,0.1725,0
18966082,1,-0.0042,-0.0041,0.0005,0.0002,0.0057,0.177,0
18966248,1,-0.0042,-0.0041,0.0005,0.0099,-0.0072,0.1672,0
18966415,1,-0.0042,-0.0041,0.0005,-0.0118,-0.0094,0.1648,0
18966582,1,-0.0042,-0.0041,0.0005,0.0004,-0.0193,0.1622,0
18966748,1,-0.0042,-0.0041,0.0005,-0.0108,0.0061,0.1708,0
18966915,1,-0.0042,-0.0041,0.0005,-0.0054,0.0083,0.16,0
18967082,1,-0.0042,-0.0041,0.0005,0.0013,-0.0022,0.1735,0
18967248,1,-0.0042,-0.0041,0.0005,0.0123,0.0052,0.1818,0
18967415,1,-0.0042,-0.0041,0.0005,-0.0012,-0.018,0.1781,0
18967582,1,-0.0042,-0.0041,0.0005,-0.0022,-0.0168,0.1645,0
18967748,1,-0.0042,-0.0041,0.0005,-0.0107,-0.0163,0.1733,0
18967915,1,-0.0042,-0.0041,0.0005,-0.0208,-0.0016,0.1519,0
18968082,1,-0.0042,-0.0041,0.0005,-0.0071,-0.011,0.1766,0
18968248,1,-0.0042,-0.0041,0.0005,0.0064,-0.0054,0.1612,0
18968415,1,-0.0042,-0.0041,0.0005,0.0034,-0.0013,0.1735,0
18968582,1,-0.0042,-0.0041,0.0005,-0.0045,-0.0202,0.1749,0
18968748,1,-0.0042,-0.0041,0.0005,-0.0129,-0.0019,0.1649,0
18968915,1,-0.0042,-0.0041,0.0005,-0.0067,-0.0091,0.1602,0
18969082,1,-0.0042,-0.0041,0.0005,-0.0048,0.0035,0.171,0
18969248,1,-0.0042,-0.0041,0.0005,0.0029,-0.0016,0.1727,0
18969415,1,-0.0042,-0.0041,0.0005,0.0077,-0.011,0.1639,0
18969582,1,-0.0042,-0.0041,0.0005,0.005,0.0011,0.1595,0
18969748,1,-0.0042,-0.0041,0.0005,-0.0161,-0.0092,0.1678,0
18969915,1,-0.0042,-0.0041,0.0005,-0.0043,0.0044,0.1702,0
18970082,1,-0.0042,-0.0041,0.0005,-0.011,0.0078,0.1643,0
18970248,1,-0.0042,-0.0041,0.0005,-0.0017,0.0064,0.1599,0
18970415,1,-0.0042,-0.0041,0.0005,-0.008,-0.0027,0.1839,0
18970582,1,-0.0042,-0.0041,0.0005,0.0031,-0.002,0.186,0
18970748,1,-0.0042,-0.0041,0.0005,0.009,0.0002,0.1712,0
18970915,1,-0.0042,-0.0041,0.0005,0.0023,-0.0066,0.1773,0
18971082,1,-0.0042,-0.0041,0.0005,0.001,-0.0137,0.1657,0
18971248,1,-0.0042,-0.0041,0.0005,-0.0134,0.0019,0.1599,0
18971415,1,-0.0042,-0.0041,0.0005,-0.012,-0.0078,0.172,0
18971582,1,-0.0042,-0.0041,0.0005,0.0016,0.0009,0.1787,0
18971748,1,-0.0042,-0.0041,0.0005,-0.005,-0.0031,0.1816,0
18971915,1,-0.0042,-0.0041,0.0005,-0.0127,0.0056,0.1812,0
18972082,1,-0.0042,-0.0041,0.0005,-0.0126,-0.0046,0.1664,0
18972248,1,-0.0042,-0.0041,0.0005,-0.0146,0.0025,0.1589,0
18972415,1,-0.0042,-0.0041,0.0005,-0.0158,-0.0045,0.1692,0
18972582,1,-0.0042,-0.0041,0.0005,-0.0103,-0.0073,0.1618,0
18972748,1,-0.0042,-0.0041,0.0005,-0.012,-0.0045,0.1675,0
18972915,1,-0.0042,-0.0041,0.0005,0.0198,0.0009,0.1723,0
18973082,1,-0.0042,-0.0041,0.0005,-0.0084,-0.0055,0.1629,0
18973248,1,-0.0042,-0.0041,0.0005,-0.0117,0.0163,0.1657,0
18973415,1,-0.0042,-0.0041,0.0005,0.0111,0.0131,0.1749,0
18973582,1,-0.0042,-0.0041,0.0005,-0.0046,-0.0036,0.1683,0
18973748,1,-0.0042,-0.0041,0.0005,-0.0053,-0.0063,0.1704,0
18973915,1,-0.0042,-0.0041,0.0005,-0.0024,-0.0033,0.1712,0
18974082,1,-0.0042,-0.0041,0.0005,-0.0099,0.0027,0.1662,0
18974248,1,-0.0042,-0.0041,0.0005,-0.0012,0.0069,0.176,0
18974415,1,-0.0042,-0.0041,0.0005,-0.0024,0.0034,0.1678,0
18974582,1,-0.0042,-0.0041,0.0005,-0.0221,-0.0124,0.1616,0
18974748,1,-0.0042,-0.0041,0.0005,-0.0148,-0.0205,0.1594,0
18974915,1,-0.0042,-0.0041,0.0005,-0.0121,-0.0169,0.167,0
18975082,1,-0.0042,-0.0041,0.0005,0.005,-0.0055,0.1678,0
18975248,1,-0.0042,-0.0041,0.0005,-0.005,0.0132,0.1625,0
18975415,1,-0.0042,-0.0042,0.0005,-0.0025,0.0023,0.1695,0
18975582,1,-0.0042,-0.0042,0.0005,-0.0045,-0.0041,0.1608,0
18975748,1,-0.0042,-0.0042,0.0005,-0.0103,-0.0117,0.1652,0
18975915,1,-0.0042,-0.0042,0.0005,-0.0025,-0.0219,0.1683,0
18976082,1,-0.0042,-0.0042,0.0005,-0.0005,-0.0039,0.1739,0
18976248,1,-0.0042,-0.0042,0.0005,-0.0124,-0.006,0.1634,0
18976415,1,-0.0042,-0.0042,0.0005,0.0037,-0.0093,0.1685,0
18976582,1,-0.0041,-0.0041,0.0005,-0.0003,0.0021,0.1765,0
18976748,1,-0.0041,-0.0041,0.0005,-0.0087,-0.0108,0.1668,0
18976915,1,-0.0041,-0.0041,0.0005,-0.0086,-0.0108,0.1707,0
18977082,1,-0.0041,-0.0042,0.0005,-0.0042,-0.0009,0.1597,0
18977248,1,-0.0041,-0.0042,0.0005,-0.0005,-0.0094,0.171,0
18977415,1,-0.0041,-0.0042,0.0005,0.0035,0.003,0.1778,0
18977582,1,-0.0041,-0.0042,0.0005,0.0025,0.01,0.1845,0
18977749,1,-0.0042,-0.0042,0.0005,-0.0073,-0.0027,0.1494,0
18977915,1,-0.0042,-0.0042,0.0005,-0.009,-0.0079,0.1732,0
18978082,1,-0.0042,-0.0042,0.0005,-0.0076,-0.0065,0.1526,0
18978249,1,-0.0041,-0.0042,0.0005,-0.0181,-0.0023,0.1686,0
18978415,1,-0.0041,-0.0042,0.0005,-0.011,0.0014,0.1666,0
18978582,1,-0.0042,-0.0042,0.0005,-0.0085,0.0118,0.1552,0
18978749,1,-0.0041,-0.0042,0.0005,-0.0001,-0.0048,0.1647,0
18978915,1,-0.0041,-0.0042,0.0005,0.0017,-0.011,0.1709,0
18979082,1,-0.0041,-0.0042,0.0005,-0.0023,-0.0088,0.1562,0
18979249,1,-0.0041,-0.0042,0.0005,0.0033,-0.0064,0.177,0
18979415,1,-0.0042,-0.0042,0.0005,-0.0051,-0.001,0.1756,0
18979582,1,-0.0041,-0.0042,0.0005,-0.0035,0.0015,0.1652,0
18979749,1,-0.0042,-0.0042,0.0005,-0.0083,0.0053,0.1718,0
18979915,1,-0.0041,-0.0042,0.0005,-0.0048,-0.0053,0.1688,0
18980082,1,-0.0041,-0.0042,0.0005,-0.0031,-0.0051,0.1786,0
18980249,1,-0.0041,-0.0042,0.0005,0.0023,-0.0102,0.1747,0
18980415,1,-0.0041,-0.0042,0.0005,0,-0.0165,0.1681,0
18980582,1,-0.0041,-0.0042,0.0005,-0.0068,0.0017,0.1703,0
18980749,1,-0.0041,-0.0042,0.0005,-0.0089,0.0033,0.1753,0
18980915,1,-0.0042,-0.0042,0.0005,-0.0005,-0.0061,0.1573,0
18981082,1,-0.0041,-0.0042,0.0005,-0.0057,0.0011,0.1748,0
18981249,1,-0.0041,-0.0042,0.0005,-0.0092,-0.0233,0.1694,0
18981415,1,-0.0042,-0.0042,0.0005,-0.0053,-0.0111,0.1651,0
18981582,1,-0.0042,-0.0042,0.0005,-0.0261,0.0152,0.1746,0
18981749,1,-0.0042,-0.0042,0.0004,-0.0287,-0.0044,0.1569,0
18981915,1,-0.0041,-0.0041,0.0005,-0.0066,-0.004,0.1699,0
18982082,1,-0.0041,-0.0041,0.0005,-0.0116,-0.0052,0.1763,0
18982249,1,-0.0041,-0.0041,0.0005,-0.0013,0.0007,0.1636,0
18982415,1,-0.0041,-0.0041,0.0005,-0.014,0.0165,0.1731,0
18982582,1,-0.0041,-0.0041,0.0005,-0.0098,0.0066,0.1737,0
18982749,1,-0.0041,-0.0041,0.0005,-0.0132,-0.0037,0.1616,0
18982915,1,-0.0041,-0.0041,0.0005,-0.0068,-0.0043,0.1788,0
18983082,1,-0.0041,-0.0041,0.0005,0.0028,0.0149,0.1573,0
18983249,1,-0.0041,-0.0041,0.0005,0.0173,-0.0072,0.1693,0
18983415,1,-0.0041,-0.0041,0.0005,-0.0013,-0.0036,0.1837,0
18983582,1,-0.0041,-0.0041,0.0005,-0.0044,-0.0017,0.1596,0
18983749,1,-0.0041,-0.0041,0.0005,-0.0108,-0.0097,0.1645,0
18983915,1,-0.0041,-0.0041,0.0004,-0.0079,-0.0188,0.1776,0
18984082,1,-0.0041,-0.0041,0.0004,0.0038,0.0013,0.169,0
18984249,1,-0.0041,-0.0041,0.0004,-0.0011,-0.0128,0.1777,0
18984415,1,-0.0041,-0.0041,0.0005,0.0179,-0.0061,0.1695,0
18984582,1,-0.0041,-0.0041,0.0004,0.004,0.0016,0.1725,0
18984749,1,-0.0041,-0.0041,0.0004,-0.0095,0.0028,0.166,0
18984915,1,-0.0041,-0.0041,0.0005,-0.0097,-0.0044,0.1502,0
18985082,1,-0.0041,-0.0041,0.0005,-0.0007,-0.015,0.1648,0
18985249,1,-0.0041,-0.0041,0.0005,-0.0157,-0.0124,0.1654,0
18985415,1,-0.0041,-0.0041,0.0005,0.0004,-0.0099,0.1785,0
18985582,1,-0.0041,-0.0041,0.0005,-0.0093,0.0038,0.1661,0
18985749,1,-0.0042,-0.0041,0.0005,-0.0115,-0.0053,0.1659,0
18985915,1,-0.0042,-0.0041,0.0005,0.0028,-0.0001,0.1649,0
18986082,1,-0.0041,-0.0041,0.0005,0.0018,-0.0168,0.1725,0
18986249,1,-0.0042,-0.0041,0.0005,-0.0148,0.004,0.1758,0
18986415,1,-0.0042,-0.0041,0.0005,-0.0079,0.002,0.1882,0
18986582,1,-0.0042,-0.0041,0.0005,0.0044,0.008,0.1754,0
18986749,1,-0.0042,-0.0041,0.0005,-0.0034,0.0178,0.1629,0
18986915,1,-0.0042,-0.0041,0.0005,-0.0105,0.002,0.1731,0
18987082,1,-0.0042,-0.0041,0.0005,-0.001,0.0026,0.1624,0
18987249,1,-0.0042,-0.0041,0.0005,-0.0164,0.0031,0.1593,0
18987415,1,-0.0042,-0.0041,0.0005,-0.0067,-0.0076,0.1518,0
18987582,1,-0.0041,-0.0041,0.0005,-0.0022,0.0005,0.1616,0
18987749,1,-0.0041,-0.0041,0.0005,-0.0031,0.0093,0.1686,0
18987915,1,-0.0042,-0.0041,0.0005,0.0065,-0.0027,0.1771,0
18988082,1,-0.0042,-0.0041,0.0005,0.0009,0,0.1764,0
18988249,1,-0.0042,-0.0041,0.0005,-0.0016,-0.0003,0.1679,0
18988415,1,-0.0042,-0.0041,0.0005,0.005,-0.0095,0.163,0
18988582,1,-0.0042,-0.0041,0.0005,-0.0021,-0.0062,0.1675,0
18988749,1,-0.0042,-0.0041,0.0005,-0.0052,-0.0004,0.1733,0
